timestamp,accel_x,accel_y,accel_z,gyro_x,gyro_y,gyro_z
-0.000134274703891977,0.14901424590336979,0.11921139672269583,9.884507122951685,-5.570406791165437,5.874070287928459,0.9655055700683117
0.01972629929186178,-0.0414792903513554,-0.03318343228108432,9.789260354824323,-3.15465416868895,-9.394904723769136,-2.3440730868508393
0.04001471436731786,0.19430656143020775,0.15544524914416621,9.907153280715104,-4.7103009178712245,-1.6389752793873156,2.074069143241576
0.06039093098907136,0.45690895692240757,0.3655271655379261,10.038454478461205,-2.739979093705689,-0.2083001169066737,-1.7710850754159921
0.08020848838637083,-0.07024601241700079,-0.056196809933600635,9.7748769937915,-1.0707515535559438,0.07954329199815541,2.248665112335385
0.10007802338886439,-0.07024108708475416,-0.056192869667803326,9.774879456457624,4.185772431656922,0.902480280390406,-0.8223344261421643
0.1203098618417467,0.47376384465221744,0.37901107572177395,10.04688192232611,-1.6057951935285122,3.0521990990474657,-5.163141376888989
0.14041989972935667,0.23023041874587263,0.18418433499669812,9.925115209372937,-7.928128533847963,-0.17703719522675432,-2.947248721442811
0.16055851923940237,-0.14084231578048562,-0.1126738526243885,9.739578842109758,5.700339232475802,-1.8402914107184034,-1.2912441260618532
0.1807411733873545,0.1627680130757894,0.1302144104606315,9.891384006537896,-4.185450668075198,-2.037946723298478,4.104567071245734
0.20069636084398715,-0.13902530784373868,-0.11122024627499094,9.740487346078131,-0.2936021355231436,-3.0575790101917732,2.703430891587675
0.22076568871796667,-0.13971892607107705,-0.11177514085686165,9.740140536964462,2.2326825347035575,3.9377166216343262,4.8715842369664255
0.24081946103708782,0.07258868146981023,0.05807094517584819,9.846294340734906,0.998052092013914,-3.232642397382573,4.960905648089574
0.2606510966060202,-0.5739840733973394,-0.4591872587178715,9.52300796330133,5.470897737607378,4.233855545041222,-1.6042524137727447
0.28071744868364484,-0.5174753497539099,-0.4139802798031279,9.551262325123046,2.3950157169637944,0.09499541129935501,-0.5654605792764883
0.30096832471185625,-0.1686862587722918,-0.13494900701783344,9.725656870613854,-4.30654789848554,-2.6062740342806476,-1.2338397729916153
0.3209048319530691,-0.3038493361003271,-0.2430794688802617,9.658075331949837,10.892810869958309,3.092036078720673,-2.0145318159032297
0.3409386796917988,0.09427419977858216,0.07541935982286574,9.857137099889291,0.9716673166911661,-3.6372696236155893,-5.524484128009375
0.3609833553639825,-0.2724072226563633,-0.21792577812509065,9.67379638867182,-0.7367011331075312,3.190920203641064,-0.044243154050527214
0.3809297563428769,-0.4236911104005875,-0.33895288832047,9.598154444799707,4.8196271152778545,1.0636306059589242,-3.856696781133331
0.40106847047939725,0.4396946306764662,0.351755704541173,10.029847315338234,1.247254729650361,-2.9816234454596033,-0.10251564460298217
0.42093579124212777,-0.06773289014596069,-0.054186312116768554,9.77613355492702,1.9961409646966355,2.643174076672796,6.347312428688953
0.4412056542348484,0.02025846140637715,0.01620676912510172,9.82012923070319,12.460919993003435,2.732948628443194,-1.5280352889921263
0.4613342292361564,-0.42742445586403705,-0.34193956469122966,9.596287772067981,-1.3756071412752333,5.787598029049788,0.5843220168842019
0.4811502094050033,-0.1633148173575548,-0.13065185388604383,9.728342591321223,-1.5888044700869792,4.83073506204648,2.7199451574278495
0.501493145230962,0.03327677691295983,0.026621421530367863,9.82663838845648,0.582892560062319,2.4563701036314143,0.8408738758977209
0.521530099412196,-0.3452980732266908,-0.27623845858135265,9.637350963386655,5.357579677905193,-5.637954756043816,0.8774525638268881
0.5413888437977303,0.11270940550370158,0.09016752440296127,9.86635470275185,-7.532670150951995,12.242934940870285,-1.0872073010642407
0.5616130885917101,-0.1801916069756415,-0.14415328558051319,9.71990419651218,-9.827779457382526,-7.018081055359051,-0.695633925183698
0.5817153567845812,-0.08750812493798303,-0.07000649995038642,9.766245937531009,-2.9355763531007377,4.746315871411545,-2.8800315665634857
0.6013642987327159,-0.18051198366881907,-0.14440958693505526,9.719744008165591,-8.169614795296436,2.156419084431492,2.5381350266682228
0.6212625005582487,0.5556834553526813,0.444546764282145,10.087841727676341,-2.1241567376281925,-5.870711862405572,-5.224474969842287
0.6413216539146744,-0.004049167421380174,-0.0032393339371041396,9.80797541628931,2.5124984806464505,-0.6215046943924928,2.9132650151466066
0.6608930744681274,-0.31731327868676995,-0.25385062294941596,9.651343360656616,-4.453744317761316,-0.3937644312232003,-4.2110951542357276
0.6809134223741864,0.2467634736309567,0.19741077890476535,9.933381736815479,-7.134132883906712,6.527913579052617,2.8878218222299568
0.7009483521377089,-0.36625309499130665,-0.29300247599304535,9.626873452504347,0.34668580857673986,-3.5665545014010576,-1.0614525786365432
0.7207149876502154,0.06265907850142662,0.0501272628011413,9.841329539250713,4.312717423075851,-1.3097250321217695,-3.6956060643992408
0.7407724505164488,-0.5879010371639326,-0.4703208297311461,9.516049481418035,-8.474867192583064,-11.680348025106316,1.7378959352389094
0.7607772771732553,-0.3984558146695291,-0.3187646517356233,9.610772092665236,4.101161991529921,8.673813965617885,2.7863026052273243
0.7805423522410598,0.059058370760737056,0.04724669660858965,9.83952918538037,4.086531018691631,-5.352341215100356,-1.3142359443106106
0.8007295982394138,0.22153997399862313,0.17723197919889852,9.920769986999312,4.77042551078314,1.6345543211958746,2.1618316460368
0.8209005028873488,0.051410484356991144,0.041128387485592915,9.835705242178497,6.092401074358432,-0.5070391486093198,-6.855253484008051
0.84084588935896,-0.03469448471647216,-0.02775558777317773,9.792652757641765,11.01006962329808,-0.49000483391669986,-3.961788869239802
0.860809506983263,-0.09033110867678663,-0.07226488694142931,9.764834445661608,-1.780460243095276,4.049309924354377,3.8772267914061875
0.8809580936597635,-0.4435565971102282,-0.3548452776881826,9.588221701444887,0.5478579003892905,8.356312301518173,-0.6710078225937485
0.9009212949201227,-0.2159532625184126,-0.1727626100147301,9.702023368740795,-2.0821921662401275,1.2574683497099586,-5.586639979346543
0.9205384471690001,-0.13819163128793624,-0.11055330503034899,9.740904184356033,0.009884223779053878,3.2753900881526294,-2.096598541325981
0.9406391683694617,0.3171366678656747,0.2537093342925398,9.968568333932838,7.664366778181559,1.6444576836352043,-2.770201417575242
0.9604798503942955,0.10308548687053842,0.08246838949643075,9.861542743435269,-6.725072419653344,5.087657119653132,-0.4978851944187742
0.9804052156723935,-0.5289120466088202,-0.42312963728705616,9.54554397669559,-4.3052483608278775,-2.3145818974316357,-1.112252951422942
1.000700123674965,0.0972251908184385,0.0777801526547508,9.85861259540922,6.885904682522806,5.37695277208207,0.5367951868144825
1.020676661869145,-0.11552468412489496,-0.09241974729991598,9.752237657937552,5.100182534510449,5.5524993282369195,-0.20839815483772411
1.0406803427453013,-0.2030766000917876,-0.16246128007343008,9.708461699954107,-1.81565823408539,5.412685043414549,4.079217765111056
1.0607856100893753,0.18350288665226036,0.1468023093218083,9.90175144332613,4.272010005603599,-3.30073933668238,1.273645799159007
1.0808900107671318,0.3092998567487853,0.24743988539902825,9.964649928374394,1.7060792124601663,-0.8416881711859543,1.3730148335807582
1.1007095051026379,0.27938403573485954,0.22350722858788763,9.94969201786743,7.501373045004939,1.1973349439021748,3.4954713716835646
1.1207007792885122,-0.25176525696679153,-0.20141220557343323,9.684117371516605,0.3725479691338631,-6.854210224145029,-1.1663062512887452
1.140711343683079,-0.09276371275536437,-0.0742109702042915,9.763618143622319,5.128160569362912,7.974601040430073,-3.7856323300754555
1.1607690829513864,0.09937902942106919,0.07950322353685535,9.859689514710535,13.2100595524631,-0.061382667510879424,3.6209109738967475
1.1808302612285513,0.29266353813670776,0.23413083050936623,9.956331769068354,2.9904957752373313,1.419639438023608,0.40752524432433745
1.201351083363288,-0.14375227135358698,-0.11500181708286959,9.738123864323207,0.2466408289742182,-2.8850221986360145,0.41805362369678534
1.221119245298152,-0.055697692999145135,-0.04455815439931611,9.782151153500427,3.612234926104898,-6.634387796835114,-1.8999897645907091
1.2413185975111733,-0.33190049220180845,-0.26552039376144676,9.644049753899097,-1.8264042910194245,-3.020149427373855,-1.8505659993107326
1.2615586065613213,-0.3588619872242012,-0.287089589779361,9.6305690063879,11.93983852762366,1.0960209381679422,2.540167016312531
1.2816604972450876,0.2437577467182594,0.19500619737460753,9.93187887335913,0.9003551884799075,3.3671440637684675,2.9539673944128313
1.3015337680550945,0.4068720085712469,0.3254976068569975,10.013436004285625,-1.3646666011275643,0.8089577030136008,2.3514702172399757
1.3218700355501294,-0.021603036474100154,-0.017282429179280124,9.79919848176295,-4.178445025100182,1.7336200812097529,2.378884816336425
1.341434972866163,0.30105986936760726,0.2408478954940858,9.960529934683803,5.486100958032193,-1.6851318734068843,1.7070886117792767
1.361301653415701,0.10849080751429024,0.0867926460114322,9.864245403757145,4.335937064138694,2.4812428312271413,0.39456819023446876
1.3815393237441267,-0.19353592638153727,-0.15482874110522982,9.713232036809233,-2.486771857070466,7.414164331929537,-0.5261390529629405
1.401468635312424,0.10841868165252418,0.08673494532201935,9.864209340826262,2.8822567256121134,3.5239472121949342,3.6309715498246593
1.4217912621063655,0.46141096993979075,0.36912877595183263,10.040705484969896,-7.542779841064283,4.0477094412647014,-1.121162611471301
1.4414922350464114,-0.010747811732985458,-0.008598249386388366,9.804626094133507,0.9248528753657813,1.470081996533155,1.1099376416422408
1.461273148556603,0.46939309674420177,0.3755144773953614,10.044696548372102,2.2637817603834725,-7.51577534799801,-2.4120389938627396
1.4811701548115592,-0.7859235312269233,-0.6287388249815387,9.417038234386538,8.536649047796114,-5.223332653156216,-1.9778971105513512
1.5012569685560482,0.24657075131256714,0.19725660105005371,9.933285375656284,-3.854094013643447,2.2743790033192166,-0.7084637035716794
1.5212158984149535,0.0261141204714514,0.020891296377161122,9.823057060235726,-6.391763144011621,-0.05469525980042922,-2.4118151301814907
1.5411211524534225,-0.08970220513976035,-0.07176176411180828,9.76514889743012,-4.477139804625208,2.19921443236414,2.393555476434901
1.5614085656286238,0.027528232960650687,0.02202258636852055,9.823764116480326,-6.6828425015746,8.382117089220367,-4.044102754635088
1.581714588512683,-0.5962706743802678,-0.4770165395042143,9.511864662809867,6.6832867887949154,3.6301799961466683,0.29768887014321876
1.6016350464485232,-0.06590156635125358,-0.05272125308100287,9.777049216824373,7.743196475120183,6.294431028714108,0.3975242905265436
1.6212964267760388,0.10713377145352392,0.08570701716281914,9.863566885726762,1.6010828897441445,0.4734069473536502,-5.432398734959042
1.6408682638991825,0.4433682134224548,0.35469457073796384,10.031684106711229,6.106474728425741,-4.036078387422199,-1.3230714615708261
1.6609194558111202,-0.1554810654820942,-0.12438485238567537,9.732259467258954,0.6697919029011766,-0.2893307960717051,0.7670986141444281
1.6810539808245455,-0.24254808086795626,-0.19403846469436503,9.688725959566023,-0.47555823850383006,-4.023759068595689,1.2861839798822043
1.7010699142706427,-0.15052711307536096,-0.12042169046028878,9.73473644346232,-1.6651880952688083,7.79147478386224,-0.6129216258004976
1.721059066538208,0.27462063531062225,0.21969650824849782,9.947310317655312,-1.5519549568878275,3.9519553826773484,2.030664613442146
1.7409014919042507,0.09862533289790533,0.07890026631832427,9.859312666448954,-7.739007781545157,2.6025624831413987,-0.3279487717081224
1.7610358217520148,-0.15892806113011163,-0.1271424489040893,9.730535969434944,1.3212738180366934,6.179716011140517,0.040958736225170184
1.7813747927167762,0.1539802299340068,0.12318418394720546,9.886990114967004,-0.20166955107021847,-10.100282072616126,0.754961606959661
1.8009347510702907,0.029123264804412116,0.023298611843529694,9.824561632402206,3.726803620389379,2.940689756713299,2.7809988862025063
1.8209225847215147,0.29059349715986676,0.23247479772789342,9.955296748579935,0.4676174821930485,-6.553228921521866,-2.0271540072465957
1.8407318489406133,-0.2106159281632057,-0.16849274253056457,9.704692035918397,-0.8135185078454586,-0.03627849232830583,-1.4604656175548931
1.860437089630784,-0.09829864397933046,-0.07863891518346437,9.760850678010335,-4.355965150038152,-1.5585379623360724,-2.006689475187645
1.8802144283456088,-0.11763244593964728,-0.09410595675171783,9.751183777030176,0.3607661841088066,3.3086830604847393,-0.9965931484257999
1.9002936968057271,-0.4390544844396356,-0.3512435875517085,9.590472757780184,3.69118615408081,1.140936444804777,4.278702774239294
1.920378023134227,0.08883608311937281,0.07106886649549825,9.854418041559686,-5.716694955419303,6.725585868058942,1.7181759579894664
1.9406734145754434,0.0783165816539668,0.06265326532317343,9.849158290826983,0.4373687684036962,-3.009485804663068,-3.393269235506526
1.9606785047738537,0.00153403699273827,0.001227229594190616,9.81076701849637,1.1652147576474197,3.5455719481664194,-1.8013408967660245
1.9803301943368614,-0.07037614001254422,-0.05630091201003538,9.774811929993728,-3.590323918091322,0.8111160844941596,1.1183016728292068
2.0002858943173676,-0.42461122261512424,-0.3396889780920994,9.597694388692439,-2.939281524540001,-8.176451350357762,-2.719523342798311
2.0200119523919065,-0.1261935968296077,-0.10095487746368617,9.746903201585196,1.1530542438310722,-4.593082292615163,-2.1760201224442706
2.039773927103603,-0.10281435495803085,-0.08225148396642468,9.758592822520985,-5.667105091463115,-0.7493901676108418,4.034878998522446
2.059893372804266,-0.24068318076648565,-0.19254654461318854,9.689658409616758,1.7496185762469627,5.561462249458639,-1.84012688541956
2.0799355428743667,-0.04838571349980274,-0.03870857079984219,9.7858071432501,-4.476771868296,2.3186152877855726,2.8640004480881602
2.1000563898824347,0.12121525704436151,0.09697220563548921,9.870607628522182,5.314268465166082,-5.8375041194035715,3.7659695685928156
2.1199882252019617,0.565855770363159,0.45268461629052725,10.092927885181581,11.689138726941499,-0.701581140235799,-2.200386273506893
2.1401496650036287,0.05237334384955169,0.04189867507964135,9.836186671924777,-4.303784008509099,10.089032243965153,-2.669887669671424
2.160070318312952,0.07726511721682919,0.061812093773463354,9.848632558608415,2.6710393118733733,0.5561166742042896,-0.828396259443495
2.180296988768482,-0.02233377472985013,-0.017867019783880105,9.798833112635075,-3.6337095244100963,-1.6366278753619774,-3.2658831620208746
2.200369250445358,-0.5756313645897124,-0.46050509167176995,9.522184317705145,5.204770868988948,2.4586982037811027,0.3631016355082272
2.2203311849602425,-0.007954162634765062,-0.0063633301078120505,9.806022918682618,-6.326292045426076,3.81696539790985,-0.6169557355601594
2.240376937458059,0.01806906298230793,0.014455250385846344,9.819034531491155,2.402933792138563,-2.280841737400295,1.0817400476589047
2.2603766992068457,0.7389726337455859,0.5911781069964687,10.179486316872794,-4.364944834446764,2.5128738718571855,4.190830368698464
2.2806992543988898,-0.05770828943433676,-0.04616663154746941,9.781145855282832,-1.0349229454918438,-1.6444474833540461,2.4524549423109576
2.3007516758123874,0.09046420270008373,0.072371362160067,9.855232101350042,-5.155126375736535,3.596638009147192,1.4677193262370687
2.3207546871668896,-0.010413530911572993,-0.008330824729258396,9.804793234544213,4.111752354478768,0.8484657898564186,-5.898145238903754
2.340710322884461,-0.3506034112858596,-0.2804827290286877,9.63469829435707,-4.184901772197935,2.409839135264461,1.3301279463071256
2.3608822936172915,0.34284684435450613,0.2742774754836049,9.981423422177254,2.759821296659138,-3.795917730837522,5.167882982113648
2.381027210174084,0.22557990980603224,0.1804639278448258,9.922789954903017,-1.7204901413116647,-4.1064319203642965,-9.03156754894055
2.4009757757370025,0.23730958411291406,0.18984766729033126,9.928654792056458,-0.5723618589943147,4.727486523296974,2.0681476289268756
2.4207479813230597,-0.2728162364384217,-0.21825298915073735,9.673591881780789,0.7387795370006427,-0.39698190692746876,-0.4780757242693928
2.4405709215843654,0.4208382932808297,0.3366706346246638,10.020419146640416,-3.8091233582942436,1.4251737104968076,-2.5493850090688337
2.460537422965438,-0.42055531883768427,-0.3364442550701474,9.599722340581158,1.0518355677044346,-1.531977135432598,2.4033857517358603
2.480810542355644,0.1760571281400811,0.14084570251206488,9.89802856407004,7.651672821772055,4.493633870068218,5.129117701821992
2.500763840918776,0.6571366877429935,0.5257093501943948,10.138568343871498,-3.8904739291635715,-3.0390499001482874,2.325692186513261
2.520648350085764,-0.2971608975392065,-0.2377287180313652,9.661419551230397,5.859050716369224,-0.6780061995044144,-1.113575853784579
2.540299540112096,-0.16988931888083156,-0.13591145510466526,9.725055340559585,7.490488167438921,3.9299640635156594,-2.830409473224469
2.560605582288198,0.029895409526292365,0.023916327621033892,9.824947704763147,-4.080774945140219,5.8648384958213295,0.4338829013686313
2.5807227218063757,-0.15104269623485975,-0.1208341569878878,9.73447865188257,-7.2752730254527584,-2.618796455133417,2.6195078771447644
2.6008852576893586,-0.4651990293198398,-0.3721592234558719,9.57740048534008,1.5098045008588235,9.798419909779415,-1.161159078701183
2.621080929188726,0.020568892441808196,0.016455113953446558,9.820284446220905,-2.737037613834365,1.5662084684680817,-0.87114897495239
2.6410513170319554,-0.31869111411783146,-0.2549528912942652,9.650654442941084,9.343016095815011,-5.214641309043689,8.466000749515196
2.6610715690476865,0.14207772919055447,0.11366218335244359,9.881038864595277,0.174037702499161,1.8452602429498401,3.2359558378791777
2.6813726233250583,-0.275827270270141,-0.2206618162161128,9.67208636486493,-4.010997040175896,-1.9149960724172896,3.4503860351808964
2.7014118733919035,0.4649803215052619,0.3719842572042096,10.042490160752632,-5.735797555058557,2.1703424359158854,-4.380857718176436
2.7215327123388984,-0.2349759877008711,-0.1879807901606969,9.692512006149565,5.449524795454151,-0.2142812383016901,-2.121566037880381
2.7417101563713198,-0.09661845486170267,-0.07729476388936214,9.76169077256915,-2.855919870420932,0.37136845095072396,0.2240449183627171
2.7618420765267855,0.24405516521090093,0.19524413216872075,9.932027582605452,0.2191439973021413,-4.55796688293073,-3.0034126736554487
2.781819776581714,-0.36925929493018655,-0.29540743594414925,9.625370352534906,4.779013725562404,4.9503061535818,4.801191896667882
2.8018163337021327,0.06823798038123882,0.05459038430499106,9.84411899019062,-2.421291759654151,-5.7806368357551605,4.230936919771937
2.821975195678709,0.3921428262847284,0.31371426102778277,10.006071413142365,-0.2296441437008032,-5.543824477024976,-1.6006360121521617
2.8421337301396776,-0.4822449703683682,-0.3857959762946946,9.568877514815817,-0.08284204911260037,1.8368017457374333,5.351755819822454
2.862370710548463,0.05539015755969126,0.04431212604775301,9.837695078779847,3.4166225575804594,8.014221235889847,-0.012756290159826402
2.882484263834107,0.07796483827452703,0.06237187061962163,9.848982419137265,2.953721677551629,-1.7629654853220362,7.768169152167147
2.9026069188458066,0.23454686153319299,0.1876374892265544,9.927273430766597,-1.1005686562741426,3.5048616135198287,0.4340583915751094
2.922521006061431,-0.3710852132634246,-0.29686817061073967,9.624457393368289,0.31824530748258884,5.366700884317726,1.728578250985266
2.9424081100481985,-0.3961369839252829,-0.3169095871402263,9.611931508037358,-1.8588950576174437,4.073422186470346,4.1997103235086755
2.96256757007205,0.15658246968506928,0.12526597574805542,9.888291234842535,-7.388062034597223,-1.556041445868407,3.8329000494234275
2.982456066947428,0.08909540196995581,0.07127632157596465,9.854547700984979,1.288004286990647,-5.4552335859703724,1.5321961984076804
3.0024552606357866,0.075147855103763,0.0601182840830104,9.847573927551881,9.460958804165339,-11.037737828356775,-0.42342095833150745
3.022734399172962,0.10393446284909276,0.08314757027927422,9.861967231424547,-4.418595703455314,-1.3142024973119661,1.5423980999793576
3.0429818471204126,-0.20400741647354723,-0.1632059331788378,9.707996291763227,-3.865148548013515,5.890436842810873,-2.448552515628345
3.0630455387755537,0.06967610914830107,0.05574088731864085,9.84483805457415,-4.353638858218707,-5.62082992380967,0.4564011565923476
3.0829896447485683,0.08792174198960437,0.07033739359168349,9.853960870994802,3.6229588936156127,3.5010492375938274,-3.3279225974939846
3.102968302855481,-0.21430542540791034,-0.17144434032632827,9.702847287296045,2.2424272709822004,-4.750762650259361,-5.342644920240904
3.123145168772674,0.559732353343427,0.4477858826747416,10.089866176671714,-0.7926884620822838,0.5303628819341915,0.1512802924183292
3.143141202806166,0.14214987627353626,0.113719901018829,9.881074938136768,-4.590095308194827,3.53895807077509,3.7868336720150166
3.1630328802165453,-0.35739104916079456,-0.28591283932863565,9.631304475419602,0.46188395819962147,-3.297477184192139,2.7774139247881777
3.183279369056809,0.19696608259014892,0.15757286607211915,9.908483041295074,-7.823110636679021,0.8524234034845704,-0.2457368871768248
3.203319022973616,-0.29240450106819643,-0.23392360085455716,9.663797749465902,0.7171328342874661,-2.075456683626644,5.24096909452649
3.2232069056983987,0.2361253811227356,0.1889003048981885,9.928062690561369,4.357621930439671,3.525743294690884,-1.7071841725397214
3.243306027625167,0.34757867370222123,0.278062938961777,9.98378933685111,-6.25599568316839,1.176585842423186,-5.753497985394068
3.263503605196787,-0.24620469550551313,-0.19696375640441052,9.686897652247245,-7.662591384148318,0.282538372146337,-6.546303882602885
3.2833054044728107,0.28901283877329653,0.23121027101863723,9.954506419386648,7.897189458474298,7.791749800709889,-3.5435728217871514
3.303268647579122,0.12383427808094949,0.0990674224647596,9.871917139040475,-3.0587981975229246,3.3115307118415105,2.4498742297866865
3.3232226447945856,0.246618047998347,0.1972944383986776,9.933309023999174,5.679739229719109,-3.4517593306314454,-1.9044080504021585
3.343316436116724,0.5690378947961842,0.45523031583694734,10.094518947398093,-0.7699883259891585,-0.42931950398880925,1.3828759255719059
3.3634461716702777,-0.07361643480086115,-0.05889314784068892,9.77319178259957,-0.8097740847066369,-0.3794939253983003,4.938850150751931
3.383339210777003,-0.22612084930724685,-0.1808966794457975,9.696939575346377,2.192063497483225,0.40159786312605583,-3.3002908877334183
3.4030439944308033,-0.266854328887657,-0.2134834631101256,9.676572835556172,-4.419994283732203,12.622546383037474,1.4354991953876695
3.4232536880707047,-0.24474308548963147,-0.1957944683917052,9.687628457255185,0.6624857174782277,1.854259463554984,1.6168892179671666
3.4430330329055705,-0.023130512824231234,-0.018504410259384988,9.798434743587885,-1.9074470741204632,-10.17951285052388,-2.5822139654193097
3.463090603635561,0.10234559244499304,0.08187647395599444,9.861172796222498,-6.602467217025156,-2.7139948585848255,4.062632775735249
3.4830675413447962,0.08300723979900572,0.06640579183920457,9.851503619899503,1.6874103736319954,-9.661860437479042,-0.8631211666484297
3.5031033640148186,0.24815497471080714,0.19852397976864572,9.934077487355404,-1.3165390343895809,-1.648991285229199,-1.1512589427390278
3.5234369446981413,0.0039005675633721057,0.0031204540506976847,9.811950283781687,-0.785124142223539,-9.936551148632143,6.334839655253918
3.5440479349098473,0.43606022314719506,0.34884817851775607,10.028030111573598,-6.050804717070789,-4.35795235534214,1.5683002271001545
3.5637245813165492,-0.07939704997138682,-0.06351763997710945,9.770301475014307,7.957001838814021,-7.603607648170599,2.7758716490564943
3.5839246964365974,0.8160507499768856,0.6528405999815086,10.218025374988443,4.3835709319305804,1.9208008898373876,4.064678794565516
3.603896780771043,0.18770020432950185,0.1501601634636015,9.903850102164752,4.820779420859893,0.0026968131443932094,-1.9514219983776506
3.6241096855627672,-0.25714726692488477,-0.2057178135399078,9.681426366537558,-1.52722351220841,1.5148115374936555,3.7494632911610375
3.6443044720669846,-0.3212677494183337,-0.257014199534667,9.649366125290834,-8.645914447517102,-0.522756942842632,-1.50568234499301
3.664589754917406,0.1447417245729556,0.11579337965836448,9.882370862286479,9.764586912447554,-6.971488751022089,-1.6338701680148922
3.6846500817894197,-0.06703883559775525,-0.0536310684782042,9.776480582201122,-0.30548754002934064,2.5676068462736765,-0.8159999169244085
3.7044755003814105,0.21420014822762756,0.17136011858210207,9.917100074113815,-3.743998980100269,9.611122801347264,-1.8661945048348643
3.7246643641681336,0.14197128737206344,0.11357702989765076,9.880985643686031,2.0840078724155693,2.0460628930327336,2.4664692979714884
3.7446912975723436,-0.021848673797061832,-0.017478939037649466,9.799075663101469,5.835603940016487,-2.12962299658783,0.8016319654351671
3.7646478628182987,-0.25403811542052146,-0.20323049233641718,9.68298094228974,-0.11525278042733098,-7.140335880527225,-1.4736732438513391
3.7845559519311394,-0.4544541674057594,-0.36356333392460755,9.58277291629712,6.392875839696873,-4.540334853799826,2.023515099464466
3.8047605529339417,-0.1339544856201063,-0.10716358849608505,9.743022757189948,5.4149996925843435,2.265198282860294,-0.825547312159038
3.825084560721325,0.2569196382970417,0.20553571063763335,9.938459819148521,-5.381905937010293,5.365590133996873,-0.9842111110940299
3.844848824098566,0.06422812323906119,0.05138249859124895,9.842114061619531,-3.3689505282973817,1.304330873609879,0.14605165470463094
3.864976548436043,-0.3737216336135964,-0.29897730689087715,9.623139183193203,4.787685816398837,3.9994364485299156,1.3903810669986516
3.884905404887941,0.0519542777553546,0.04156342220428368,9.835977138877677,-13.56306281905219,3.5383912201362144,1.1695429481322588
3.9046152842972837,0.11559521391865103,0.09247617113492083,9.867797606959327,-0.7472784658249438,2.532671956929588,-1.0897475467584914
3.9246481593504177,-0.2651572308603399,-0.21212578468827192,9.677421384569831,-7.154156008123359,-3.29236797630628,2.5413336223182066
3.9444848656833615,0.04611753178365837,0.0368940254269267,9.83305876589183,-2.3827690071676235,0.8696175598757623,-0.6671824532389682
3.9641726489267826,0.017462615533799967,0.013970092427039974,9.8187313077669,-1.4941004451460207,-4.241889019410691,-1.9649534658261572
3.984019634721319,-0.34289108934918694,-0.2743128714793496,9.638554455325407,-1.7912218895375398,0.08714476479050895,-4.4040649463020545
4.0038174138267175,0.10733620810448498,0.085868966483588,9.863668104052243,-2.761306260563043,1.6543176553345595,2.949535442997064
4.023691410345087,0.1682353579104703,0.13458828632837624,9.894117678955237,-5.48571824814407,8.393919036934275,0.03717022858202266
4.043429567418678,0.3249153729525831,0.2599322983620665,9.972457686476291,11.459556334093431,-6.548659871838161,0.6326170755315446
4.063353873285934,0.31614061561047085,0.2529124924883767,9.968070307805236,9.337310020806754,2.407538154956527,3.1374087470985477
4.083214557349298,-0.4133008103871273,-0.33064064830970186,9.603349594806437,-5.810329101281417,7.406182958117974,-1.432218694793448
4.103293014013709,-0.28134751197453683,-0.22507800957962948,9.669326244012732,7.9105837565178385,3.794238829193982,-4.123197745422385
4.12341505569997,0.15451058016259792,0.12360846413007834,9.887255290081299,-1.9973274523642646,4.164727214125207,0.20934210664565553
4.1434704193043075,0.15413578527366265,0.12330862821893013,9.887067892636832,0.6459373666585523,2.938474509339061,0.9238846562408862
4.163426664301714,0.15451430589181434,0.12361144471345148,9.887257152945908,-0.31636979948457933,6.491672448877084,-0.7885471984811183
4.183377512671558,1.1558194471964163,0.924655557757133,10.38790972359821,-3.298743206269829,-5.437390840561839,4.421212734228507
4.203213431563056,0.17126715320795008,0.13701372256636007,9.895633576603975,4.919261718030733,-6.9296333298512325,-7.458499703164069
4.223054166520156,0.3406696920541797,0.27253575364334376,9.980334846027091,0.629432652883289,-0.03167070232627981,3.360169913699349
4.243198221182753,0.2862005290479607,0.22896042323836854,9.95310026452398,-2.382757116096207,-10.80581051785855,2.373460951092677
4.262849614552005,0.1954173753917394,0.15633390031339153,9.90770868769587,-6.522947219002363,6.153229020890056,1.370312333101378
4.282836803453324,-0.09458077339210366,-0.07566461871368294,9.762709613303949,-4.467975068595602,6.103575977477207,-10.00770464840729
4.302775431529993,0.22769076614798014,0.18215261291838414,9.92384538307399,-8.206900578010485,-2.166752775422631,3.851666349810805
4.322898591839249,-0.23184756436127152,-0.18547805148901722,9.694076217819365,0.06111774207584733,-1.8538529833025483,-3.0793023319076562
4.342616923331546,-0.07104558202200266,-0.05683646561760213,9.774477208989,-5.983327961421979,-0.36173737575335674,-1.5230759351501606
4.362622753361625,-0.14560906434873103,-0.11648725147898482,9.737195467825636,-1.3278025625927061,0.26010325219809877,-0.5117779943702064
4.382694684118879,0.024562241815896765,0.019649793452717414,9.822281120907949,6.850509268051854,0.6358695959714269,1.222254103955926
4.402317071764135,0.6943975700020526,0.5555180560016421,10.157198785001027,5.996497864607928,2.7911605343915156,1.9182841265776496
4.422105540058544,-0.5601795577775245,-0.44814364622201963,9.529910221111239,-0.16138447051308905,-0.8631317650423906,2.6785216629578894
4.442090515978163,0.20587805711235407,0.16470244568988326,9.912939028556178,-0.43542363071574963,4.71596651738897,2.4475605302355485
4.462196679248671,-0.48381476135689555,-0.38705180908551645,9.568092619321552,9.39937274710504,2.2297388856265163,0.7587816126393776
4.482236512999875,-0.14157955973683006,-0.11326364778946406,9.739210220131586,2.603780601793556,-3.0348172293631777,1.2477679771727725
4.502351937739447,0.3266851790902099,0.26134814327216793,9.973342589545105,-1.6390322993826145,6.675563339020487,-3.27226114746674
4.5221393971259,0.01928400572863883,0.015427204582911065,9.81964200286432,-7.13009058560226,-6.791284930612434,-2.2530804204570667
4.541824980944936,-0.3233234333787918,-0.25865874670303346,9.648338283310604,1.9693660908237163,-0.4608290541073824,2.6863806710244966
4.561845215995069,-0.21459111277799045,-0.17167289022239238,9.702704443611005,4.146618862914312,4.834587005377339,2.511628460186044
4.581602679236408,0.20387932468040273,0.1631034597443222,9.911939662340203,-3.1582576225682195,-3.615365524560723,2.171398249333263
4.601432948660181,-0.219109989515141,-0.1752879916121128,9.70044500524243,1.4560137756901634,1.5477782338357573,-1.5432502849695826
4.621622738220127,0.06493757687459245,0.05195006149967396,9.842468788437296,-1.8178664745751467,2.71669798499524,2.7314763958310873
4.641663892020461,0.013671551971144131,0.010937241576915306,9.816835775985572,-0.9201619959950136,-4.302619339906196,-3.483733357441074
4.661553596928392,-0.19548010428174506,-0.15638408342539606,9.712259947859128,-12.439110287811657,-0.3623885979701753,3.232079429586819
4.6814173245164445,0.6431832267975977,0.5145465814380782,10.131591613398799,-1.1089070185806775,-0.7825191510460507,-0.7826124037376704
4.701544842716804,0.19017570669540337,0.1521405653563227,9.905087853347702,4.846846512040272,-2.7586892591614642,5.052511219021897
4.721590570792916,-0.6075427759972821,-0.4860342207978257,9.50622861200136,-3.157012777832791,11.508374260253873,-4.564326276196455
4.741350993353433,0.055936294430828294,0.04474903554466264,9.837968147215415,0.26263184107658133,-3.8155317672273785,5.2902121377555655
4.760964762495794,-0.1985359394305164,-0.15882875154441312,9.710732030284742,-3.779753533459602,5.024651470339416,-1.0843929874903855
4.781344456751303,0.2557300004388672,0.20458400035109375,9.937865000219434,1.8022083814638645,-1.9640050844057098,-1.1384377680352327
4.8011032947952215,-0.23775622152981019,-0.19020497722384816,9.691121889235095,-1.082615987680868,-5.433180944426409,0.5845164569567907
4.8212121679848625,-0.034420932440069704,-0.027536745952055765,9.792789533779965,-4.6962077034100345,0.5140712157753445,-2.0912367384020905
4.841517640460313,0.15149618369413714,0.12119694695530972,9.88574809184707,6.662757338325639,3.2454669219375036,-0.21698700390692066
4.861550493863061,0.2597265582510364,0.20778124660082914,9.939863279125518,4.644660067661076,4.602547875328394,-2.2128787958125633
4.881433740416749,-0.3600889221167329,-0.2880711376933863,9.629955538941633,-3.0245338196408738,7.8113255532753465,-2.103190592937561
4.901151864497391,-0.1003503707522845,-0.08028029660182762,9.759824814623858,2.488941547088887,14.726231449675499,1.4606578509017156
4.920867196279108,-0.14248359334828684,-0.11398687467862947,9.738758203325856,2.6870600141019034,1.2525710187779857,-2.704696485910548
4.940945869137825,-0.19599876977211356,-0.15679901581769085,9.712000615113944,3.21150617505588,-3.315460869126939,-2.304582705016447
4.961239398291397,0.5296362720843291,0.4237090176674633,10.074818136042165,-8.471279479975388,2.264371633974456,-4.118373749239227
4.9811636403610375,0.12149451328828666,0.09719561063062933,9.870747256644144,5.03303270516314,-1.331064752032458,-1.5117920398840183
5.001055830157589,-0.37826518630051353,-0.30261214904041084,9.620867406849744,-2.848494814628657,4.629830649261149,3.934806089171766
5.021198660264733,0.2753585841164328,0.22028686729314628,9.947679292058217,-1.7891396672063344,-6.485821481828609,-2.5378009203089054
5.041064804702933,0.6366468591037899,0.5093174872830319,10.128323429551896,13.189408761301,11.841672712002186,-2.1948997955617244
5.0611230351734395,0.30973957816534403,0.24779166253227525,9.964869789082673,1.5093669036050588,4.280240473877564,0.5817658394446068
5.081134729352439,-0.455810989786204,-0.3646487918289632,9.582094505106898,-1.9316123772358775,-8.420020088980824,-1.112389301398579
5.101056169629705,-0.1452702218598754,-0.11621617748790032,9.737364889070063,-11.02647186377953,-3.5451445115748608,6.684463300048948
5.121056395886939,0.3800733447559868,0.30405867580478946,10.000036672377995,6.948820669731778,4.080405220569694,-0.4875838940287701
5.14141236019885,-0.2123008396856342,-0.16984067174850737,9.703849580157183,-6.726048354043012,5.881720280857273,1.0056550386521153
5.161536600676652,0.13314582844386852,0.10651666275509482,9.876572914221935,-5.017194517497518,-6.361188136159816,2.831306354397966
5.181758434726485,0.23239021602880103,0.18591217282304084,9.9261951080144,-1.656761495439246,3.5651292521647444,2.773733597588552
5.201578029743283,-0.2780791414734249,-0.2224633131787399,9.670960429263289,7.082058958501463,-9.736699363309617,0.699862744672137
5.2218005508617855,-0.017857606818540022,-0.014286085454832018,9.80107119659073,3.866199933328796,-0.4466793273552299,-0.483382460058003
5.2419316888458605,-0.9723802020207217,-0.7779041616165774,9.323809898989639,-0.7891875492012999,5.560234210516032,6.072085609137771
5.26163510351553,-0.30731629240028696,-0.24585303392022959,9.656341853799857,1.5414603181941051,-2.757578650514902,-0.2992808259427999
5.281746395551186,-0.07577044541794808,-0.06061635633435847,9.772114777291026,-3.0019284643555286,-7.534611495690068,-1.3250703132854418
5.301647074612809,-0.3743349545894548,-0.29946796367156386,9.622832522705274,0.6982684478267541,0.7310739818877965,-1.9375469648820554
5.321341247766525,0.48972339117949054,0.39177871294359246,10.054861695589747,0.36668372389068327,-3.02359433317739,-5.180409608120268
5.341370536801972,-0.42904241338818977,-0.34323393071055186,9.595478793305906,4.8438494784067645,3.1477918303291776,2.4648472567114896
5.361481679209166,-0.13201334600909512,-0.1056106768072761,9.743993326995453,4.835890612194747,-4.426632161090302,-7.0442051913024795
5.381515334711876,0.0392221731858274,0.031377738548661924,9.829611086592914,2.469886911028224,-3.8631844482655016,-0.01716852271476214
5.401496840883889,0.43238198671983463,0.34590558937586774,10.026190993359918,-1.8117377877305114,-10.105011604381218,-0.6145819028141551
5.421434057705179,-0.4307586453538318,-0.34460691628306545,9.594620677323084,3.709111471950633,0.8497235552574143,6.719895576694343
5.441930709196028,0.3489491256464879,0.27915930051719035,9.984474562823245,-0.45984233101523303,-0.8045246913829938,-5.494953686140879
5.461697529207305,0.0030699183058761144,0.0024559346447008915,9.811534959152938,-5.409571843565665,-5.941923353700354,-2.703309860953071
5.481875447492757,-0.2944525953143853,-0.23556207625150824,9.662773702342808,-2.0164389595546934,0.9689935688354601,-0.40828937604494886
5.501881865975916,0.1386310422789812,0.11090483382318497,9.87931552113949,0.4226349189216227,5.135351503220695,-0.5925880124075061
5.521714306563644,0.059717908672041006,0.04777432693763281,9.839858954336021,4.551078918323727,-1.0778397170947491,-1.6486337724301343
5.5417079606425,-0.1800650631476384,-0.14405205051811074,9.719967468426182,-0.9176408607857653,1.3408347491098689,-0.2429637282065022
5.561432708003965,0.020940625497005656,0.016752500397604526,9.820470312748503,-6.045993556198031,1.3665562479258209,-3.778688186609224
5.581316943811585,-0.11559407905852798,-0.09247526324682238,9.752202960470736,0.28370841648409706,-6.021649135894802,1.071578636984817
5.601310890835398,0.03405520357537439,0.027244162860299515,9.827027601787687,0.5672802002827619,10.28292910353798,-6.964456026232735
5.62100400131266,0.1986392023563139,0.15891136188505114,9.909319601178158,0.9291881445137652,-2.3542491506114196,-0.07730806763177121
5.641108611709339,0.4758050448436056,0.3806440358748845,10.047902522421804,4.599357579772151,3.2805810093013537,-1.8010700827907198
5.660919193390139,-0.3713446496480547,-0.29707571971844376,9.624327675175973,5.094616200449492,3.846076386145248,3.0488638282699068
5.680632183087518,0.63991001239688,0.511928009917504,10.12995500619844,-2.971054361908333,-0.6979756355787585,5.265933211899914
5.700419433429333,-0.5856263398567505,-0.4685010718854004,9.517186830071624,-3.080717290244717,3.0339751252981726,-0.9931565062510731
5.720857958150682,-0.04553552851067497,-0.03642842280853998,9.787232235744662,-5.200993554777366,1.2290961090819457,4.1721777874242925
5.740465679211289,0.17649516194537285,0.1411961295562983,9.898247580972686,3.4940783514023814,-7.0881987861370295,-0.9483488418912323
5.760556237718025,0.0842975603205098,0.06743804825640785,9.852148780160256,7.244100541688577,-1.6613635062504413,-2.89837956938727
5.780409244352803,-0.18680985594617816,-0.14944788475694254,9.716595072026912,-1.575409639544617,-3.062754511770309,5.237710896556859
5.80034255260748,-0.06243667510718259,-0.04994934008574608,9.77878166244641,-1.2071528236249658,-2.3087252067306356,1.5623293342020204
5.8204666726821985,-0.14790028039764994,-0.11832022431811995,9.736049859801176,7.333912784494881,-6.520015889183189,0.013315567829443072
5.840580970314147,-0.17680942708326353,-0.14144754166661083,9.721595286458369,2.5277892660750383,5.6321685837301505,2.0615324252959453
5.860448164919296,0.2548806291063075,0.203904503285046,9.937440314553154,2.1811785240052752,8.009963273067065,0.822645105390502
5.880179934006952,0.1071046457895142,0.08568371663161137,9.863552322894758,-5.954582529868634,4.8900148799920435,-0.20765822382455404
5.900307696090674,-0.20787287857819625,-0.166298302862557,9.706063560710902,3.393640346397095,6.352646120735715,-3.9793044819239896
5.920421505418257,0.2698799626299752,0.2159039701039802,9.944939981314988,-4.645681702548791,-1.723174185040781,-0.8116102114838001
5.94036784540548,0.0921898562629828,0.07375188501038625,9.856094928131492,-5.67010092967479,-3.181284174930182,1.8697662703754183
5.960459568171223,0.24385863565168803,0.19508690852135044,9.931929317825844,-1.7338578838335608,-3.892935234058558,-0.3683142770604317
5.98037373616401,0.18888865257708368,0.15111092206166696,9.904444326288543,-2.9289636172434506,3.2203246147861133,2.706977283391158
6.000211662539985,-0.24869850327662174,-0.1989588026212974,9.68565074836169,-1.107998471925197,1.1353152657207481,1.1509650716003668
6.02021578886519,-0.1680543120590909,-0.13444344964727273,9.725972843970455,-7.204908172624595,-0.38610855799212856,-2.634408954256221
6.04032292930239,0.22418808153697853,0.17935046522958284,9.92209404076849,4.794081532338362,6.475742720976715,-3.957515873496371
6.060388113245282,0.18311107963003945,0.14648886370403155,9.90155553981502,5.638431472582145,2.0247067690767153,-0.47153549979050413
6.080493279670279,-0.00627047818924444,-0.005016382551395552,9.806864760905379,-9.73671237070407,-4.193288187602924,-1.5726853443137627
6.100344497784602,0.0351982149926346,0.02815857199410768,9.827599107496317,4.892289028332751,-3.404544145678474,1.0089654288650585
6.120664207898536,0.3832994687365275,0.306639574989222,10.001649734368264,-4.052643149108132,3.4099664962707275,-2.1544129762881896
6.140599065616449,-0.17747141665074898,-0.1419771333205992,9.721264291674625,4.28487768491393,5.208664263272985,-1.8461769772646313
6.160578616375136,0.1641292143510113,0.13130337148080903,9.892064607175506,-0.34223246333207824,2.7584011612798474,3.1592091527847375
6.180318219082273,-0.06065779573016819,-0.048526236584134554,9.779671102134916,0.14387782040499292,9.484443739360406,0.4446089058836936
6.200282781939995,-0.06530436096816611,-0.05224348877453289,9.777347819515917,-0.9254882471060935,8.175035828657094,-2.108181196281879
6.220392563376347,0.3296330555961571,0.26370644447692565,9.97481652779808,6.060646021167431,2.2051791742538143,0.052925426205059016
6.240548399387867,0.24762490469640894,0.19809992375712715,9.933812452348205,-6.1979400626251415,-4.192903297407511,4.136733729005048
6.260864121424286,0.24405289080019155,0.19524231264015324,9.932026445400096,3.0392016936750426,-6.549937558658838,0.881360064824168
6.280971502292433,0.3916436421462987,0.313314913717039,10.00582182107315,5.5066508244477514,-1.9369087250735741,1.7788524282753886
6.301030218820574,0.006301152489827715,0.0050409219918621725,9.813150576244915,3.581700402702053,3.766067232080785,-2.2567036095823276
6.320944293687252,0.20458589138848918,0.16366871311079134,9.912292945694245,11.623494571617087,9.133235396559689,3.079258131403801
6.340815279494588,-0.09308002697803681,-0.07446402158242946,9.763459986510982,-2.6447338136234944,2.087235172053999,6.954306781391406
6.361012663086503,0.09724990574653262,0.07779992459722611,9.858624952873267,4.786524112967657,5.8436139711561825,-2.37440292753856
6.381206211045832,-0.039042916310305376,-0.0312343330482443,9.790478541844848,-0.5304531767071017,-1.2265374309390118,-3.5456819231159677
6.4009941423946435,0.029098789497815455,0.023279031598252366,9.824549394748908,6.167030381763348,3.1138456261377496,0.5266267315054447
6.421142095461056,0.1785471076310741,0.14283768610485928,9.899273553815538,-0.03844497860684737,4.116784147385862,2.626515149533231
6.441275506088316,-0.24546620497004173,-0.1963729639760334,9.687266897514979,-1.939378909312348,-9.897971379262641,-0.27416901615078404
6.461056078200296,0.627716182705638,0.5021729461645105,10.123858091352819,6.530361019358145,-2.067194011882551,-3.159619188127988
6.481167503450235,-0.3018052144499106,-0.24144417155992848,9.659097392775045,-2.4578096950946495,4.748501921389349,-0.32575248534116996
6.50096092804732,-0.36425658383631965,-0.29140526706905573,9.627871708081841,-7.06362879450278,1.3723416781828246,1.7942768183323636
6.520478403342767,0.34743326205002034,0.2779466096400163,9.983716631025011,-2.5842344158691417,-5.982575240754665,-1.221095480838178
6.540449716749009,0.23749880818888075,0.1899990465511046,9.928749404094441,3.0951647329426613,-12.15061187863678,1.821765053264765
6.560504613579042,0.18723594511564653,0.14978875609251724,9.903617972557823,6.960193757935457,-1.8289037265100319,3.4941323557197306
6.580484933307048,0.18850365277928396,0.15080292222342717,9.904251826389643,0.5556468764825605,-0.35792846446939525,0.7206918773113429
6.601061688559467,-0.0036740318540743866,-0.0029392254832595094,9.808162984072963,6.590985336170125,-4.4196147491417275,-0.08384331383487795
6.621140792694295,-0.26917631144574944,-0.21534104915659957,9.675411844277125,-6.790874607387965,0.715424685139972,2.4880317756788455
6.641173554947136,0.0227413674581179,0.01819309396649432,9.821370683729059,-2.2163173240895144,2.5319337361644734,-2.5683024823116907
6.66126280709678,-0.2031485134536335,-0.1625188107629068,9.708425743273184,-1.4428755857705058,3.353435853631164,-2.864129501078767
6.681177877184881,0.29253592002532536,0.2340287360202603,9.956267960012664,-0.5727971373626015,-11.77959462466161,-0.799716854786956
6.701367106886282,-0.044117214450641595,-0.035293771560513276,9.78794139277468,0.4204719412509849,-6.571425489040601,-1.4756383644434017
6.721442641164499,-0.24764915903775345,-0.19811932723020276,9.686175420481124,3.454554786960964,-1.523113241773678,-2.410025925871426
6.7415090093942585,-0.09641575249589802,-0.07713260199671843,9.761792123752052,-2.2240341908524512,2.8608656551873173,5.491405424996323
6.761387519238667,0.12387943628268734,0.09910354902614987,9.871939718141345,0.695143434765628,2.446170067750178,6.515979628482874
6.781077987062359,-0.16911736584119247,-0.13529389267295397,9.725441317079405,-0.22561445162025826,2.359349739383379,-1.0611151267667467
6.8009810437335245,-0.24666611866992944,-0.19733289493594355,9.686666940665036,-4.62944951945575,-1.917089709844659,0.2751568492450963
6.821040904393758,0.07310616344757369,0.05848493075805895,9.846553081723787,-0.5683334454071769,-1.6381671865498038,-0.5635284601913729
6.840955298386791,0.07348997133261682,0.05879197706609346,9.846744985666309,-0.7182976494855907,-3.6416463421087037,3.3224977203544688
6.861016977709186,-0.15208295261133892,-0.12166636208907114,9.733958523694332,-0.8254028250152305,3.8409706405292394,3.9169366855201413
6.880973839222796,-0.14131149168549684,-0.11304919334839747,9.739344254157253,0.15879728290725373,-4.602443938697891,-5.33179139606894
6.901063289008702,0.06961498120729089,0.05569198496583271,9.844807490603646,0.3783677030669307,4.250181975947849,1.428032400196877
6.920871258072508,-0.43442530244919725,-0.34754024195935784,9.592787348775403,-2.1614758955366513,1.0392661906882303,-3.9204640234834454
6.940913169963868,-0.42223913231296656,-0.33779130585037326,9.598880433843517,6.363573669856324,-0.22522239227576793,5.274816473625835
6.960788313023579,-0.2155332663757308,-0.17242661310058466,9.702233366812136,-5.8474031460150835,-3.283551998882333,1.3207440906311936
6.980483990324134,-0.06403414551355417,-0.05122731641084334,9.777982927243224,-3.6048505423494817,-6.777709305820632,-2.4700486150879075
7.000454293388509,0.09327226967940137,0.0746178157435211,9.856636134839702,13.899818121117779,-3.238263781890228,-0.7239641638135595
7.020764890792255,0.4426068650848656,0.35408549206789247,10.031303432542433,-5.1899567749461495,-1.6500343431244315,-0.8669317747984752
7.040476509399667,0.2572978869606058,0.20583830956848465,9.938648943480304,-6.768773373548793,-11.845121557906257,1.575338828657447
7.060503721738728,-0.04798155898902813,-0.03838524719122251,9.786009220505486,3.6723837250060893,-0.9867757766733214,3.1257378125324347
7.0806665710403625,-0.005704862370806649,-0.004563889896645319,9.807147568814598,-10.38559926886937,4.621786840130028,-3.4446218759151295
7.101129911066373,-0.30075880939134264,-0.24060704751307413,9.659620595304329,-1.1763695498621947,2.8360895271693627,5.516263502736342
7.121034658358864,-0.005553940797716971,-0.004443152638173577,9.807223029601142,10.729124625382443,-2.4810293787075373,4.817070323462531
7.140911592126925,-0.08659759167604136,-0.0692780733408331,9.76670120416198,-7.724679610767002,0.23468149207613861,-2.6259707027731363
7.160681587576719,0.09681556810142684,0.07745245448114148,9.858407784050714,-9.909822428693566,-2.7808228471099983,0.2184053830869279
7.18091302473267,-0.24816928306569688,-0.1985354264525575,9.685915358467152,-7.4959060097884915,0.7438036666784806,5.1324256323429465
7.200742875755804,0.1558039542723517,0.12464316341788136,9.887901977136176,4.491797841734928,7.700539118720158,3.6987557600324488
7.22067209035843,0.4598216739007733,0.36785733912061863,10.039910836950387,5.623883599929062,4.84249401312438,-1.010229090143687
7.240305636671937,-0.032628044537057276,-0.026102435629645822,9.793685977731473,-2.5629439848925446,2.6039715284637626,2.44301944370362
7.260485764929454,0.12051351662968243,0.09641081330374596,9.870256758314842,3.416062020005345,-2.4644245619185905,8.991594875157416
7.280720750474591,0.20704319751333375,0.165634558010667,9.913521598756667,6.951276637559948,3.749691964724193,0.3154799455536363
7.30089323937629,-0.12036614156575087,-0.0962929132526007,9.749816929217126,8.936732072149127,-8.434384756865265,-1.8979447543200578
7.320575508209001,0.06722774454312502,0.05378219563450002,9.843613872271563,-1.2316764058992409,-1.2617674099544527,0.5172595562741976
7.340700272306138,0.0037777202345384577,0.0030221761876307665,9.81188886011727,-11.507358588349934,2.9185570991197496,0.7396562864919539
7.360369072118174,0.029302829564649514,0.023442263651719614,9.824651414782325,-4.104394612048433,3.7021060702387554,-1.5736102170002944
7.380384014067569,-0.23190293515663993,-0.18552234812531196,9.69404853242168,-2.134020974676288,3.349422451078704,1.3248752034426508
7.400428363472548,0.007353052277682809,0.005882441822146247,9.813676526138842,-1.2946939828919528,1.4741534460484726,-3.763203179182504
7.42049373400515,0.14939948737363484,0.11951958989890787,9.884699743686818,-0.9392970050435976,-0.9786248954194146,-1.9966016010260377
7.440603995200659,0.4353430823385125,0.34827446587081,10.027671541169257,5.5944729896533465,2.6898798491324434,2.274734328464393
7.460605722368928,0.287781247825562,0.23022499826044962,9.953890623912782,6.372142133437907,-4.764305202931501,-5.264612554626754
7.480216570355364,0.6459547372534669,0.5167637898027735,10.132977368626733,-0.8583682696239168,-4.223386316466249,2.7095027759843293
7.500326928446106,-0.23020426886641485,-0.1841634150931319,9.694897865566793,5.492424380259093,0.3086733823014836,-6.03594409711711
7.520349783963313,0.26169619101620345,0.20935695281296277,9.940848095508102,1.7883068331554468,0.8659882135437369,-5.193973736628945
7.54017259389402,0.05500260172150552,0.04400208137720442,9.837501300860753,0.32252986431285857,-9.128075892823231,-1.4969362291676562
7.559862048298775,0.6569408799653017,0.5255527039722414,10.138470439982651,4.532720785549819,2.275731904747593,0.860591528458051
7.580173386624941,-0.24248948560654543,-0.19399158848523634,9.688755257196728,0.36126024118957906,3.8636418895969666,3.975790809382165
7.60042298062158,-0.2519165526542328,-0.20153324212338625,9.684041723672884,10.28905588548881,-0.3864261873314766,0.17286828947878666
7.620567505992023,-0.17981779363320663,-0.14385423490656532,9.720091103183398,-7.192055833972796,11.87233141641996,-0.7396608227279696
7.640435579898758,-0.637168717292942,-0.5097349738343536,9.49141564135353,-2.5758544954600886,-3.4146755315759307,1.7387437439544124
7.659935514677297,-0.15772650650422831,-0.12618120520338266,9.731136746747886,-0.6325944847697516,-1.8054358169343476,-2.612696461403803
7.680091784401366,-0.22773979846610937,-0.1821918387728875,9.696130100766945,2.197263452289953,-1.9753345306360468,0.4182454780392189
7.700168455645118,0.045118135942862285,0.03609450875428983,9.832559067971431,6.339802435515445,-0.3809380564550877,-3.5983387738660797
7.720096857072285,0.10252679273314783,0.08202143418651826,9.861263396366574,-0.12199283618078322,-1.6436240648314553,0.24777155062623935
7.740325152222607,0.5628512517647658,0.45028100141181265,10.091425625882383,-7.111148247531035,-7.034052723024359,-0.38950897754821007
7.760498085618381,0.2851271514558151,0.22810172116465208,9.952563575727908,4.212569482275022,-2.732741481182377,-2.4128037643482516
7.7805366386050085,-0.17307109669872092,-0.13845687735897674,9.72346445165064,3.774793830709822,-0.4881034788703804,0.49512190961321745
7.800546984177564,-0.2695244014045074,-0.21561952112360594,9.675237799297747,-9.70929329689703,6.142860410309985,0.47564895947892843
7.820560511610065,0.1475757514519517,0.11806060116156136,9.883787875725977,-0.019020668353996916,11.011216366864565,3.5263620370174045
7.8406998334736135,-0.39606996210619266,-0.31685596968495416,9.611965018946904,-7.9507091534014895,6.677369489253273,-4.816900209188363
7.860531672093287,0.5494376297563061,0.4395501038050449,10.084718814878153,-3.3232554875103126,-3.8768951483630323,-0.22814672309112782
7.880620202606625,0.3538320362163861,0.2830656289731089,9.986916018108193,-4.514044634813999,-3.4790480531308274,-2.280787199110438
7.900439418306713,-0.14075269563141143,-0.11260215650512916,9.739623652184294,4.046323491209929,-0.7966428875467548,2.6092861745288753
7.920710063230045,-0.5139403587272634,-0.4111522869818107,9.553029820636368,0.584150870860919,8.92279444426793,2.2617361955763986
7.940819822833341,0.406161712249624,0.3249293697996992,10.013080856124812,-6.427955003780138,-0.827120260909467,1.5236395352058631
7.960685511069995,-0.034361953575785364,-0.027489562860628293,9.792819023212108,4.400329814786711,-6.637537452687154,-2.111499774208389
7.980704964123783,0.37134489359203854,0.29707591487363083,9.99567244679602,-7.169029119642072,-2.5058856847651754,2.656411748820286
8.000537540736758,-0.4783282976383101,-0.3826626381106481,9.570835851180846,1.650568952354719,3.785280009097085,-4.590392786229995
8.02084169719328,-0.17981250688613185,-0.14385000550890548,9.720093746556934,-4.070053346457781,3.4497013844804343,-5.205932110778314
8.041169606279157,0.0015731099154549497,0.0012584879323639599,9.810786554957728,-1.8283854126525996,-1.0010833324582804,-3.8276129997057717
8.06131218490465,0.014094178129422616,0.011275342503538094,9.817047089064712,2.52135374019192,3.4170733678001532,-0.10042443098071768
8.081626850107163,-0.1350196414437731,-0.10801571315501848,9.742490179278114,2.607246995297645,-11.36586101273416,2.0254932029648813
8.101660543185918,0.1868549797042496,0.1494839837633997,9.903427489852126,6.684845367779801,0.5191461751634884,-8.928097422028573
8.121816579588335,-0.3202861288147783,-0.25622890305182267,9.649856935592611,-0.4112684983572663,4.303427106843151,3.9682284956393596
8.142064858381698,-0.04271384550638805,-0.03417107640511044,9.788643077246807,1.5322543148167052,-4.164316375772676,0.3933365885353026
8.162067043551577,0.03608868951356966,0.02887095161085573,9.828044344756785,-2.1886866120216233,-4.18169268248144,-4.703317042769325
8.182084598212022,0.1543316502176247,0.12346532017409978,9.887165825108813,0.9099494131139882,-9.332240763817376,0.3028409108687431
8.202274663421289,0.21348446342666685,0.1707875707413335,9.916742231713334,2.1974302400425585,7.949477974053471,3.2775762440352585
8.22240729690339,-0.3373926275513607,-0.26991410204108857,9.64130368622432,-0.49154923727188005,-3.6007698851078334,1.7983230459187767
8.24225953864833,-0.4602342512206867,-0.36818740097654934,9.579882874389657,-9.018752420462482,1.2052163893105587,3.2972191876618977
8.261825506663056,0.3833030465695527,0.3066424372556422,10.001651523284776,1.6573544816544765,3.0195852074168728,-4.098739888191333
8.281793734939521,0.0996942035938775,0.079755362875102,9.85984710179694,1.8228073867772852,7.560339745707266,-1.2420157054152137
8.301377685992657,-0.22454596096696608,-0.17963676877357287,9.697727019516517,-3.4008673817397543,-0.7694888699281764,-2.7740766915705963
8.321182816414417,0.46534559265675685,0.3722764741254055,10.042672796328379,-6.421935180362571,-2.697148968892093,5.152740615132954
8.341011292911958,0.0347023902878576,0.02776191223028608,9.82735119514393,7.379395752519825,0.8653382428527674,1.9180885304598898
8.360900898338752,0.35378915521914794,0.28303132417531834,9.986894577609574,2.4572275544720115,6.420401382711435,8.541028766872923
8.381068319856565,0.020255544423032686,0.01620443553842615,9.820127772211517,-1.145405154608549,-0.8508626570039188,-1.4028286002516823
8.401279189653692,0.6182243774645961,0.49457950197167694,10.119112188732299,-5.685164415737437,-4.774345407920382,-2.174022635046914
8.421384271686636,0.5266022527329614,0.4212818021863691,10.07330112636648,-4.10907414210673,-7.703789041576812,-0.42847991578545164
8.44151410697083,-0.07468924454372204,-0.05975139563497764,9.772655377728139,6.512951983931158,-6.106486923026127,4.135071664267647
8.461648664951085,0.2914712852863066,0.2331770282290453,9.955735642643154,0.6883097043402304,4.321957487033324,-1.098359068126042
8.481152632841821,0.19361278487554426,0.1548902279004354,9.906806392437773,-2.752935335003532,-1.6031223815340585,0.37331279372083104
8.501158006267207,0.4105894672597046,0.3284715738077637,10.015294733629853,2.54844615612328,-3.0376045496035537,0.29007210866045735
8.520802048411953,-0.2894770381740313,-0.23158163053922506,9.665261480912985,-4.071990937231618,-3.579836115919712,0.11849028360656838
8.54090721019607,0.20581543799953178,0.16465235039962545,9.912907718999767,7.50421515140189,0.42522930100090905,-1.9571953813874339
8.560491922455586,0.3175273460548763,0.25402187684390104,9.96876367302744,6.764002674483626,-1.19727546882792,-0.4118732037310997
8.580459168637498,-0.5276218459269343,-0.42209747674154746,9.546189077036534,-2.332870356013883,-1.365660718596264,-0.5403078040540736
8.600572056481683,-0.3549775537997325,-0.283982043039786,9.632511223100135,-3.1433512351543014,6.746619639053696,-0.022693979023947444
8.620351838781001,-0.6117696533280301,-0.4894157226624241,9.504115173335986,-13.090665993461394,7.690081409308167,2.830550454458125
8.640547515862085,-0.0808220503333673,-0.06465764026669384,9.769588974833317,-7.40790385775684,-8.050108364544982,5.281884103873478
8.660652174185056,0.21526267673878863,0.1722101413910309,9.917631338369395,-6.697348874788781,1.637963655714788,-2.5213042880091203
8.680731673013206,0.4507071156288084,0.3605656925030467,10.035353557814405,0.6759517049369302,-3.884310493106961,-1.175980874363145
8.70087460721969,0.022228434125932554,0.017782747300746044,9.821114217062966,-1.6311685222067995,-1.2412555693054679,-2.4750356952185597
8.720806101091117,0.48858466367138753,0.39086773093711,10.054292331835693,-6.726677437076207,1.5463919256334722,0.5613046116668181
8.740839818752852,-0.4140304374644674,-0.3312243499715739,9.602984781267766,-1.4058202123227863,-1.0635995846545967,-1.6150483725329305
8.760845162956281,-0.5110147318065463,-0.4088117854452371,9.554492634096727,2.5266857382367425,1.152299403138166,0.7193905012259662
8.780845987056338,-0.016664309668985633,-0.013331447735188507,9.801667845165507,2.639196749577936,3.3648510301595875,3.3108807313343607
8.80071491472999,0.11521963468179218,0.09217570774543375,9.867609817340897,-9.498351404294405,1.4728840027015995,-7.577495057413826
8.820469742196027,-0.009808424428227934,-0.007846739542582347,9.805095787785886,-0.6413174024191541,-3.2341815208381175,1.4753396688020728
8.84040570441515,-0.6202326300119629,-0.49618610400957036,9.49988368499402,-6.916703884858051,-3.145998034851619,-1.3805611466936367
8.860330648722693,-0.026736011853836523,-0.021388809483069218,9.796631994073083,4.508643485701368,-7.198526483090177,1.3812668039531668
8.880186636414171,-0.391340850151456,-0.3130726801211648,9.614329574924273,3.920732081767493,-4.269601487603591,-2.6894083132506013
8.900360381059514,0.20090176464901152,0.16072141171920923,9.910450882324506,-4.490136131622292,9.810341809492641,3.5887829649206253
8.920129273624925,0.10997947382905447,0.08798357906324358,9.864989736914527,-3.830226012001999,-3.9600178704762223,2.7398418541208525
8.940098305682127,-0.28196393589820656,-0.22557114871856526,9.669018032050896,-2.3063352524915364,-5.966894062219099,1.7050564456279287
8.96033490751342,-0.15416007520100805,-0.12332806016080644,9.732919962399496,-11.263966973656697,1.5996393092238668,2.379677153430295
8.980520067272924,-0.31776405656668544,-0.2542112452533484,9.651117971716658,1.679840867202883,-0.5518237964592992,-2.2368614015165207
9.000766659938925,-0.018803729181951563,-0.01504298334556125,9.800598135409025,-1.3642227317006541,-0.9779661842461271,-1.8588712640678695
9.020651837712432,0.2865426961503715,0.2292341569202972,9.953271348075186,4.850875412839297,7.04522983206045,2.257308602452438
9.040812029226558,-0.2957178139006631,-0.2365742511205305,9.66214109304967,-5.492046089812764,2.745633377791827,-2.303187428305836
9.060602769036144,0.1512139546553533,0.12097116372428265,9.885606977327678,-3.0956147412496584,-2.649964658517378,4.336905139974261
9.080550928133963,-0.15907728551173222,-0.1272618284093858,9.730461357244135,-7.5326262901955765,-2.1223795879589,-0.9707732138430945
9.100517910860788,-0.23786184967870325,-0.19028947974296262,9.691069075160648,-5.021452817471266,-2.5129325695284255,1.5056831695818653
9.12040607670733,-0.03210910798636735,-0.02568728638909388,9.793945446006816,-5.909909980341093,4.373698107901285,6.29774855776527
9.140337047798694,-0.3105726967258122,-0.2484581573806498,9.654713651637094,4.979868394232227,-1.5407381472656874,-2.1186700622042296
9.160241706502175,-0.1660947916041546,-0.1328758332833237,9.726952604197923,-3.4913092437569615,-8.965767512270752,0.20628525253434837
9.180048561628936,-0.3593633677766545,-0.2874906942213236,9.630318316111673,0.6208784237230672,-0.2415983936717216,3.162549493911923
9.20022317821912,0.5894175398749167,0.4715340318999334,10.104708769937458,-1.903817019309022,-7.685130005639645,2.8538321666295943
9.220190022107527,0.010579065591518583,0.008463252473214866,9.81528953279576,-6.347326330064065,10.921153008774509,-0.9834459307180743
9.240233643305292,-0.2099176523977756,-0.1679341219182205,9.705041173801114,-0.8415021158582136,-4.828339569236155,-1.550191312565562
9.260269732568512,0.06419397322026658,0.05135517857621327,9.842096986610134,2.9955166593179734,-0.8093238267886533,-0.6994077976351553
9.280284011742516,-0.03369841490724889,-0.026958731925799114,9.793150792546376,-6.038796962716763,1.2910136735056859,4.343573298454092
9.300305906540707,-0.06629087985996678,-0.053032703887973424,9.776854560070017,4.045563953656894,-1.4432908033961513,-0.8373175690798397
9.320248156985683,0.18425001001302757,0.14740000801042205,9.902125005006514,-4.248604607388481,-1.450152007330963,0.23434707745039496
9.340535170248367,0.22725231301419152,0.18180185041135322,9.923626156507096,-2.4149196303642038,2.1091364308043854,-1.2803594127702753
9.360690653089677,-0.15915034428315825,-0.1273202754265266,9.730424827858421,2.653415615050239,7.631079793981393,2.11664569438796
9.380697663385211,-0.172745472193404,-0.1381963777547232,9.723627263903298,-3.31718078609744,3.8375454090864873,0.4665751127509691
9.400611586386999,-0.0825155091454932,-0.06601240731639456,9.768742245427253,0.18787429667932803,7.392569392867713,-3.0103014322746877
9.420591156107434,-0.6905763494206755,-0.5524610795365404,9.464711825289664,-1.5734541439404623,-5.2330955404675095,-2.9064723421049834
9.440678014299692,-0.4545573186595656,-0.3636458549276525,9.582721340670219,0.6468400335190926,1.5868131662768068,-5.995816699666521
9.460981336207182,0.41006228023335733,0.3280498241866859,10.01503114011668,-11.903695527617487,0.7762302602913963,-2.4939642273768485
9.48071006058723,0.49349031405038507,0.3947922512403081,10.056745157025192,-9.148409076040414,1.755456458383674,2.3818374108965163
9.500845349427939,-0.07471081186691349,-0.05976864949353079,9.772644594066543,3.079835030234191,6.881159853177863,3.971281614036804
9.521074028044277,0.17296708891672993,0.13837367113338395,9.896483544458366,5.185907028245252,-1.1039457489602693,2.056675089651552
9.540780018239277,0.09337504636306083,0.07470003709044867,9.856687523181531,-4.552433517657606,-2.027516832770437,1.663896601922044
9.560747121952911,0.9236642425365713,0.7389313940292571,10.271832121268286,-1.2201417608556717,2.6699039870933197,-0.37957814858594874
9.580537552247277,0.335872473430373,0.2686979787442984,9.977936236715188,1.4735962645115077,-8.891013637829237,2.324743664741961
9.600626992058594,-0.03837527744422996,-0.030700221955383966,9.790812361277885,3.4660880082935206,-1.1842602456108915,0.8588346692456528
9.620558655761103,-0.2866621321801277,-0.22932970574410216,9.666668933909937,-10.138386358354243,-0.6709884464272649,5.413346915961374
9.640535961836708,-0.4819338960772717,-0.3855471168618174,9.569033051961364,-4.430201234891886,-4.601793081534626,-0.2953359425302453
9.660457084564236,0.06103909076016693,0.048831272608133545,9.840519545380085,-1.662896899249375,5.285295056782885,4.0290242512083925
9.680604451139772,-0.226905223585291,-0.1815241788682328,9.696547388207355,3.515700986180246,-5.311201586716421,2.6223422454535803
9.700653591620872,-0.42667611287930224,-0.34134089030344184,9.596661943560349,12.492152418607475,-0.6793652418189811,2.2063298586124764
9.720703110862662,-0.193971865272758,-0.15517749221820643,9.713014067363622,-1.1400286340485892,1.4657861266148418,-6.03447397638546
9.74073856911666,-0.32446440108431857,-0.2595715208674549,9.64776779945784,-7.034887310519943,6.7672578073805925,2.7875686846431327
9.76085640118173,0.5061424905217694,0.40491399241741555,10.063071245260884,2.01134038600649,-0.05278217440426659,-0.3825239367274598
9.780807340699742,0.26449192708483515,0.21159354166786815,9.942245963542419,6.60497894770355,4.680767970641053,-1.3317794833046745
9.80115082954623,-0.0023917923949852127,-0.0019134339159881703,9.808804103802508,0.5400706048975046,3.502976986385637,-4.4487391235337395
9.820907204484968,0.44398324166700787,0.3551865933336063,10.031991620833505,-4.533242725771464,0.6172877808457127,-0.01676140190454934
9.840565354684315,0.02321049229428549,0.018568393835428392,9.821605246147143,4.789969707400095,-5.447567041367277,0.10065479045472783
9.860206952459576,-0.2583852603984791,-0.20670820831878328,9.68080736980076,3.3177280924921746,-7.172904304521745,-3.9090057654444137
9.879794368724697,0.45693722318089713,0.3655497785447177,10.03846861159045,-5.1304042209781215,0.5325270070959323,-4.419840518681076
9.899932336576645,0.16167301310539758,0.12933841048431807,9.890836506552699,1.9071280876717098,-2.713484369513068,1.4598584403843335
9.920045944005484,-0.31117384629793693,-0.24893907703834955,9.654413076851032,4.986327838294363,4.596305458406459,2.615115393184131
9.940290833192819,-0.057101603425082456,-0.04568128274006597,9.78144919828746,5.909450212794468,3.729282590492888,0.5708487297672653
9.96008283943886,-0.2626854760154272,-0.21014838081234177,9.678657261992287,-0.33224487654727985,-0.923054972185249,3.4525039490530887
9.98023526561879,-0.41483991928930086,-0.3318719354314407,9.60258004035535,-1.7903972308965943,-5.788564619706347,-0.2591549530544958
10.0002499643202,0.3328312526293375,0.26155260310034045,9.972488627145394,7.707168778116174,3.731777498818762,0.6223460106543228
10.020286615509013,1.2679431391221692,0.95477295584221,10.394320273348148,13.809715970270721,9.80564163320561,7.179175156365202
10.040415073977066,0.8180285914334531,0.5483429705542602,10.130614376889643,37.55286398543919,22.727656033471295,12.99925783275593
10.060267151515834,1.775096003380043,1.2824020685006454,10.582819056520531,39.04144493097419,29.521604859771475,28.509775435476918
10.080787935231896,1.55395775765627,1.0932390179770604,10.462039555371506,55.30261074394996,36.7892919272892,28.381761842075214
10.101057645181733,1.5002142802234677,1.059055547434242,10.442510576157957,45.74839800345496,41.129930856485885,19.341775089339947
10.120954637879915,1.1345336751214823,0.7951482098920594,10.283534562389804,43.83582624661286,28.094478200163994,19.2137107576816
10.140739824157354,0.5345919860088522,0.3596345130716991,10.020596763224942,25.136755693571832,14.793675471707171,11.039707022586098
10.160725577213974,0.17836100362260793,0.12864841587758694,9.887480179294222,-1.4359721434765111,-4.117977895101367,1.5180870839274392
10.180765362791671,-0.7384786581770931,-0.5488520445484932,9.475703072572438,-6.85382200400755,-7.722097574646111,-8.215533875641702
10.200981819732595,-0.9923262877864218,-0.7018498871845341,9.390512808643958,-22.91415468272917,-26.904808790794,-14.191383066529973
10.220751409439263,-1.5219900747198345,-1.0884276047571455,9.156642008489019,-38.64338587657802,-31.70352565889009,-19.072882593372626
10.240811840716884,-1.8003463902299555,-1.2921060856551045,9.03330266032574,-53.198281501467754,-38.81384971179819,-23.48799758105871
10.260509371600982,-1.9798089843113653,-1.4374866258177592,8.942062642537095,-50.31692364889807,-32.39925430983609,-24.754982061693095
10.280599977008645,-1.6195512818248283,-1.1716536069466346,9.103547207848608,-40.60200341738059,-31.783036588449804,-21.136249902878053
10.300581810053535,-0.7556561607524324,-0.5203300547305038,9.502334314516654,-31.583509953804572,-21.343350240475814,-11.222036027805704
10.320972479894973,-0.22974916902603995,-0.15122582162254447,9.72227001015222,-2.3961050037798106,-5.714642662294578,-4.038584118699731
10.340666613275111,-0.017650824211751737,-0.03774486644607114,9.781487748663565,8.59636805085343,16.440752680483364,4.155436235217922
10.360944068840393,0.922333349394019,0.661363794563908,10.20741427057092,11.984221414898965,23.567955889619583,12.642776932417553
10.38060663646234,1.609472704817978,1.1689447437566876,10.515875168994244,41.24125242967943,29.2153244926807,20.80804821178603
10.40034452829644,1.1803072196024313,0.8001490210586155,10.280072980948443,46.291464557023225,36.04017860890879,22.61107970487655
10.420012443273727,1.9050217652317039,1.3747019515409868,10.638081332078873,49.39718743419986,34.7045678594719,27.350526559320677
10.4400658476844,1.3593702298656607,0.9539398389597217,10.378388160822158,42.675684815340496,28.63910771560327,19.0318151366209
10.45983444181123,1.326569939853338,0.9622224942304942,10.390757088549856,37.046384633758876,21.994610477712467,15.271206746063275
10.479568109399155,0.36132097306087074,0.23845974530381442,9.948496292243034,22.464116607727647,8.788513467660842,10.266157143818441
10.499611996808461,-0.5991905442955294,-0.47440449994246575,9.514528007430533,-0.23404602002598063,2.02985804548999,-4.223304355722444
10.519705685774618,-1.1859031754427711,-0.8889247880046893,9.266879872569888,-21.629140052200007,-20.305412376726842,-14.685317686203106
10.539716989524429,-1.2251156822063949,-0.873846160090418,9.285980813625718,-35.62214791561184,-19.89554361177427,-17.518497919495275
10.559687879583606,-1.5293779095064608,-1.0857342138889197,9.160117806676977,-45.824706489194874,-30.681796510968113,-28.05072674938092
10.580056995399074,-2.020529011313471,-1.466488864155164,8.924680781756274,-53.990265164528424,-37.381077577064836,-28.885468144757706
10.600089496541306,-1.4538399903055317,-1.022036186992533,9.200609842557146,-44.117291841107935,-35.25735825564774,-21.23618518646276
10.620253968725072,-1.8088872851185325,-1.3347871481144393,8.999158590757723,-35.14068170749323,-30.867076543169436,-19.334802436214986
10.640285887039191,-0.8111619321384661,-0.581100574921264,9.460943176255359,-14.907450730952952,-15.60682064063842,-7.448367615791203
10.660069645670522,-0.5243718929854614,-0.4056917686977927,9.559318841582751,1.674833671250246,1.9890258933988494,-5.915400637908429
10.680182957095884,0.29628193300534317,0.19486845223176102,9.923010054692245,10.623990136220518,7.023491231849309,6.744325265188732
10.70005513152257,1.0898529571368882,0.779685220931628,10.278095524586876,34.83387346517237,15.382325749877005,16.56494445593705
10.720040268183944,1.2501906573499635,0.8708684115712438,10.327358566751043,38.33993785410334,35.83711985146549,18.035807594401124
10.740104682609305,1.6137212106141356,1.1427694364441872,10.493354328601134,52.88217118707806,38.673712882999354,27.79654105468578
10.759719732884909,2.008823663064307,1.460750145854305,10.692487844367871,46.18652387191303,30.97620214207928,25.916834082354903
10.77940116634911,1.2719031604275182,0.8936678950890606,10.342739385836298,36.168611634106725,27.2967014586679,15.814577615430021
10.799586392072591,1.2307045515711963,0.9005639054325296,10.355352495931909,29.400138654962845,16.704412585856165,13.88673058211211
10.819456976672253,0.0384280577165626,-0.0016009921793654902,9.802261163564436,-2.591689523232189,4.463198242982642,6.5484432675451565
10.839337046163415,-0.11938919401581174,-0.07165445972204401,9.770186149234267,-16.707176368894615,-7.582637642857295,-5.74631926901841
10.85937366773187,-0.46242685979141895,-0.2932359924626675,9.642707816246348,-26.45595787569396,-20.509110364020646,-17.223843944937713
10.879299867101427,-2.1272306997223343,-1.5830070726620835,8.845365889401986,-39.18028687208715,-32.94834005428832,-18.96087148428845
10.899386718666737,-1.9209590175201134,-1.3926051762264646,8.9696555227313,-49.900606447332954,-39.83132854490614,-17.39327744742332
10.919379828197972,-1.5686275564793704,-1.1056092570720508,9.150096878519852,-57.66144419740321,-38.46711874745832,-26.04308364938068
10.93942288267699,-1.6178174729416646,-1.1608050763137232,9.11229868189551,-48.572426557228724,-32.52376783560434,-17.533760129413974
10.959285844887923,-1.0419801977169147,-0.7347278187682482,9.37139018397928,-30.996066498907524,-26.295567533145096,-18.73292303283165
10.979327897741559,-0.7689053298454489,-0.5647491404051561,9.467526604636612,-13.882798970592553,-6.8004457510942675,-7.749217006837328
10.999552249447909,0.08645063358392636,0.06397704709496484,9.848905766981817,1.6467043360790479,3.836303515147998,3.1784775546577353
11.019442033693666,0.6534578486245158,0.4627524772502864,10.08671742293782,25.788769454960363,7.049221128038086,9.977059276973614
11.039628431242702,1.5918150278640222,1.1670394157741253,10.517230341834434,37.45785395632703,29.22179045634241,16.842227472871734
11.05962145306802,1.6847063735012526,1.2099039456143545,10.53746889242842,42.216439459091475,37.49300820958982,25.15524142849239
11.079771683288199,1.8505940002939274,1.3305340686633105,10.610346057170439,48.5778669235524,35.31160805233691,30.664553941112903
11.099800771440849,1.520916409429574,1.075777741892261,10.452995383338623,39.97079776442685,27.76285847633381,24.394325049150456
11.119797423145812,1.1623255788238984,0.8176941105409206,10.297690828980118,36.84808922077568,28.08192192660525,17.146211556775338
11.139870702971209,0.6591173586310146,0.4596751884782202,10.083209763960015,28.100069238303863,16.866131349236657,10.700528399319536
11.16011675637265,0.2766647960383777,0.20776076654571168,9.937023172781698,7.950140518551657,-2.2154636114183606,9.820967984434532
11.180167309720474,-0.6207660377312024,-0.4542296278862371,9.534936316383337,-7.11768746997935,-17.851896655980898,-6.659145700773097
11.200266349775637,-0.9908682639913564,-0.7003116922450612,9.391551633794341,-32.308732535002974,-23.533497469273204,-17.180394253737923
11.220195986681903,-0.8870867295342221,-0.5802659291307046,9.47429284731345,-36.4039858596531,-33.516249584422404,-25.002446165559814
11.240513497865685,-1.4681720927917086,-1.0262940024772627,9.199450346734233,-50.3810783842746,-39.147244765638035,-30.184981908355194
11.260644899176851,-1.8041346014527124,-1.2970510347219677,9.029813237973812,-41.39429006721796,-36.98121528378338,-23.285354918495145
11.280663774757837,-1.0830538167550612,-0.7427215111122565,9.371574376865631,-41.34979783447475,-36.44426744204969,-18.656331070158554
11.30064257791237,-1.1001405004583733,-0.7963080099193923,9.329766741810236,-24.398639946747416,-23.125200676157167,-15.15748694778002
11.320841493455205,-0.9860923321079917,-0.7567605824102819,9.343714903342764,-3.328865937154598,-5.361695665956169,-5.3971251334448
11.340723586528778,-0.02138143470398407,-0.041194672783578995,9.779234678464348,7.062703530557893,4.272530853341497,0.5035357088660888
11.360370345414506,0.3360214490978767,0.19190924281496136,9.913920794162822,26.72791709216754,10.867116756872244,13.216771471705838
11.38038815922337,1.2819606660402905,0.9066472718677168,10.351879282216382,46.084737447536746,27.366853852511067,21.26469612245399
11.400629494026976,1.6881734402948476,1.2063117871040512,10.533897582537568,47.41063922429203,30.70594896542246,22.432334720468262
11.420951089678194,2.2444115764060415,1.6462595140342513,10.807814332294203,43.15212095099654,38.65311825495416,29.949649190521193
11.440932964778488,1.6537247260510446,1.1896386510761103,10.525744754888251,55.162078527833,34.92946945808347,19.712202647213495
11.460945016200258,1.0855245748775402,0.769740682743158,10.270529806473043,30.544170064605733,16.375871164288405,17.296926005202657
11.481052256175742,0.8339410513938896,0.6169997516546395,10.185176284479885,17.511476741511796,16.33333721802901,10.903799902525858
11.501002720180951,-0.726561924027721,-0.5758305679657177,9.451234847366523,3.9737095951026227,-6.915674320507552,-1.135030376524654
11.521109335259613,-0.6319954988202212,-0.4453666962345092,9.544193669607946,-23.11903712587861,-7.2615142530051955,-10.603714260294774
11.54109558879838,-1.01215703011047,-0.7031470593789567,9.392736955535948,-40.5655278025838,-26.88852249985795,-22.049692569585563
11.5613011963388,-2.053037484891566,-1.5044761355283143,8.898442801208333,-44.71593097777193,-40.72043058893038,-18.920284243674196
11.5814491263304,-1.4062618489029621,-0.975061930962509,9.231825365681738,-58.947898042848834,-43.19681739342857,-25.50093763164623
11.601614505785843,-1.5419882894030001,-1.092716013380858,9.156401370416452,-48.39773643152029,-33.4781780764488,-21.867006748785872
11.621576776145863,-1.4313667698883432,-1.0330836677062658,9.187658071892837,-36.11138941322591,-29.958936500594092,-16.650129903821046
11.641965295498945,-0.5965951304337965,-0.4098678451814074,9.567875984087795,-23.819179206002453,-17.335334339498175,-13.119605336991574
11.662065411776402,0.5256169745399658,0.43382994101494576,10.083922121755796,-12.162708510253104,4.72981081774192,-2.815312710035829
11.682118204476081,0.5516672776777382,0.39872461632846,10.050325967327428,22.173958385596908,7.156081132287259,11.104981354518934
11.701969349768948,1.1544316020158893,0.8309768165162154,10.310075413427532,31.373845801911266,23.441930562602575,12.07648451886136
11.7219532692939,1.3732872751646197,0.9691073448436937,10.388708241508976,50.32991901814279,39.47984125886583,27.97083343893881
11.741979479135022,1.474973554104317,1.031699397716846,10.42392057241332,48.12630060463361,38.422428768983885,22.4786225719391
11.761825277564721,1.9548157966706672,1.4176484900473287,10.665571108927663,44.334655854614574,28.518023145511265,20.82880551161266
11.781770148024549,1.1850365550734618,0.8244410981005306,10.299528155904866,42.54195325402215,33.423981548220446,20.99495138843878
11.801740321909909,0.9969063170919868,0.7139162154513464,10.238779126694125,26.790677109106593,15.087195266643546,20.559851163393457
11.821754839931074,0.2286716702338347,0.15105428725020753,9.897766627669533,4.7388756889966315,15.004799877879892,-0.419056317299904
11.841405632422047,-0.14006382834768275,-0.08772896758629475,9.760236498402701,-0.758443736679677,-10.194861797952754,-4.476729670777654
11.861381912202889,-0.7995197586007865,-0.562505659150326,9.474498577141528,-28.814733691237723,-4.429989393847487,-11.422896236614205
11.881309776855254,-1.0778266650945876,-0.7431965907866451,9.37030728519356,-48.88957902031948,-22.42930538061784,-19.743173672564225
11.90130893391431,-1.8364061787026587,-1.3248334064724498,9.012039857723401,-41.45634856010575,-40.055946970559205,-22.902824404937178
11.921519323116527,-1.822169753038996,-1.308489464792541,9.023287071512716,-52.27026929194839,-37.211515384655904,-27.02848885295946
11.941933136103932,-1.8480144457665983,-1.3451785282391155,8.997020300761838,-47.45012892113259,-29.540035685373535,-24.004670266821375
11.962072145432844,-1.2824706437812026,-0.9274751436742449,9.250849154234999,-41.660728385389,-20.707040466545806,-16.862163166597163
11.98182859488741,-0.46933738812827386,-0.3255389788418994,9.616940415653131,-7.9389364539216025,-10.27105161529893,-11.711486207161531
12.001762847386027,0.2930653942579551,0.22879784604084843,9.951820639324382,-4.562579814209878,7.674412526209469,0.808352356598711
12.021885373936776,0.42854738163930384,0.2823924499777924,9.97390247804161,20.44073251474515,14.496519100240826,8.908006674593945
12.041985365925044,1.5062314741889429,1.098240919509105,10.474162187226097,40.14452156005206,24.852476617632227,16.380574418210323
12.062186164961116,2.017230486935235,1.4757381784658667,10.70357673423235,48.12398835912262,32.777232830957296,23.96922108484948
12.082170028651237,1.8734890751455104,1.3488376654725456,10.62178320870287,49.68625998799333,41.78026482082636,19.530287294379235
12.102100662491345,2.2056296111869713,1.623710186027901,10.795486886492089,38.422838349121534,37.02428093193219,22.778313510129845
12.12245448118111,1.0728133602337118,0.7463978207614166,10.253195957262228,33.23566496301454,29.419635184839507,25.594205867770064
12.142469549190766,0.41057621347697465,0.26126331725554547,9.959290062133459,23.33821953222403,20.775584627794473,7.941279862028836
12.162269548204543,-0.380763846426497,-0.3177126967050365,9.608700060483553,0.4313361713446344,-6.979857148309564,6.0401047500930485
12.18256790882493,-0.05092958841644174,0.0020914334265491608,9.820231125924865,-13.261570753240354,-9.15843192054989,-6.975215663879
12.202272023615633,-0.8858177686892746,-0.6159004321860918,9.44438593462647,-27.509210544366923,-22.09560124696339,-17.26783722086557
12.221576348460118,-1.5291557924775139,-1.0936834575930645,9.153456417418699,-38.4012110339817,-24.066253690733134,-25.568787710080525
12.241733559700707,-1.6463493683246184,-1.1687646412693609,9.110421026996303,-55.569181252508116,-44.72165325890187,-24.300096335866655
12.261919033783894,-2.0427450657163795,-1.4880447652993722,8.910420206536585,-37.733865483015705,-28.75188865654907,-19.99835656151121
12.282005170261264,-0.706576259566383,-0.4418065630715553,9.559590574034768,-37.31408480441309,-30.486565500764478,-21.743374199182163
12.301748012933448,-0.9343862411129322,-0.6640959132584457,9.412317779136783,-27.812930645645334,-18.408322254674786,-14.145064212860328
12.32173957285138,-0.3364634804883265,-0.237518048487536,9.668145539675109,-5.10322905232521,0.4664099622655735,-2.2443434332832104
12.34168727302565,0.5042003803640329,0.3788056991602756,10.041638019239558,20.011907236983443,8.942457622765549,5.115046562530631
12.361583149112453,1.0462783040300874,0.7597104545518636,10.26871232812154,18.57712905211775,21.329888615364382,8.168537439527313
12.381868896887596,1.45792436419404,1.0471315636200635,10.439622242317714,38.60966269926611,31.01343786280375,20.164649603426987
12.401662897564853,1.4470080999107409,1.0132507282247927,10.413207590202205,36.22642560190006,33.67154725097814,28.595996682630147
12.421729452344454,1.8823703716310112,1.3566737374913622,10.626833052637634,50.70411093438905,37.16319433080973,24.75960307617197
12.441971595630168,2.1177276605144897,1.5610575302768508,10.75792666514496,46.201837254539406,29.703585703071536,13.96296473402472
12.462051217824214,1.5507337754035937,1.142263497903695,10.503430619019149,32.578696895846214,24.358046107667604,17.551898711303224
12.482302775387696,1.0578902452283534,0.7966035455624083,10.297521247097283,13.296882351766573,0.7475091697931067,7.6894057847469535
12.502418852221163,-0.22208082730689355,-0.17177470832744018,9.70386788094495,-12.210890420299853,0.6727094583190723,-6.468942161442764
12.522508056044243,-1.004593797026382,-0.7430139789683508,9.35825398369744,-18.35268446719281,-15.773950932106867,-15.147800712287179
12.54258475690699,-1.28501581026673,-0.9211029567073696,9.256583504454982,-28.35939141576154,-28.408441559837442,-14.892960487802657
12.562710779449302,-1.5948951985731215,-1.1377779298076633,9.127667591589134,-49.00116862894516,-33.435766843007784,-25.22018641192424
12.5826370055188,-1.421267372896047,-0.9870546273079235,9.22433237272607,-47.786124024522316,-44.657637367055735,-27.715700977026998
12.602379964637407,-2.1493798578212298,-1.578791846064974,8.852570104582728,-54.744734964436944,-25.53166006489611,-23.55892238146335
12.622574107208681,-0.8442515274650344,-0.5637055114031804,9.480953995074856,-34.945838204486535,-28.43776494964983,-20.54856075643437
12.642809789557765,-0.8289159932293432,-0.5961459125558477,9.451364405075019,-24.295872164598894,-17.475942671767655,-10.86433445460457
12.662863519208926,-0.2781775173990142,-0.2096751685122295,9.681633612472979,-8.101038222008519,-8.043692402410072,-2.752634322806984
12.682757177973981,0.19874581651115197,0.11593575642984708,9.873488827606348,10.55181405361084,10.884956107014927,3.5768293895648178
12.702448968439658,0.5878298325733364,0.3773249945615491,10.026465856705736,29.011565922208305,30.169517325646417,13.956218520502524
12.722469463748624,1.760812679431321,1.2788905860385358,10.582273375126894,45.16535241396972,37.61947042379045,22.954852881680836
12.742203007568662,1.7527441667885517,1.2538454382909532,10.562747170777703,42.88914904065186,41.35966254067487,24.8507366440306
12.761908543957116,1.3174891728606024,0.9078932717642318,10.346996197660093,46.713778850244125,39.2565113893989,24.103850306866203
12.781907731540494,1.0502148174511114,0.7168514154691581,10.232340376649114,40.8994539405813,29.03739698511973,26.365559138826676
12.801758311529237,0.8701309337399162,0.6128876318324797,10.175717870903748,22.243842263825123,13.553462954679805,16.062631769398816
12.821830707329452,0.8673004795928132,0.6624180389308796,10.217464952510266,19.45744092283209,6.850392326509581,7.794381251692531
12.84180218209792,-0.36705970865344206,-0.2688607123589513,9.647126024476448,-12.529828921574156,-7.376120963618971,-4.629080984018499
12.861684189073658,-1.3552733384897087,-1.0067046320014004,9.196958363080451,-29.18519749828965,-14.134537499235442,-12.258570894007274
12.881346539946493,-1.4661491519703271,-1.0535685016267295,9.176384440639447,-44.675146398956606,-28.290752775083988,-21.185103293499136
12.901179296210309,-1.7667125281074425,-1.2689504118702561,9.04699341145936,-39.14746976954203,-28.04334501440672,-21.73728580604392
12.921019402801281,-2.5497141524083125,-1.8905729082530067,8.659474935190548,-46.96827841488377,-31.31216071822001,-25.19760199123772
12.94077767515556,-1.568139918619687,-1.121496095581663,9.136776573451895,-49.021573135913734,-35.53643787604212,-21.502173305556095
12.960715200185494,-1.2143103851004171,-0.8733028772770925,9.284632666452493,-27.183985806780548,-33.51200368390963,-15.875737894074692
12.98048908367624,-0.3684776375801462,-0.24529586317633081,9.666999720283082,-15.491922157817656,-5.443685552239131,-8.302208458847387
13.000459669015763,0.6261500983675929,0.49479465556116103,10.11797052990637,3.3280748165286376,8.328281899382066,9.835468056952873
13.020511085147477,1.0481954850772615,0.7776798758149863,10.283367315666279,18.56978470517872,8.388070107194604,8.146227541986324
13.040349185045581,1.1685400845851188,0.8277572083751037,10.305040992881734,31.94453982954565,34.31491492238539,15.818675291689182
13.060437600660446,1.2807244647833218,0.8863496657633013,10.335170644005531,47.765465849725096,36.468062368801654,25.120607917661314
13.080168662975177,2.5215946754533354,1.8673111631216648,10.945826856692499,47.26275626368998,38.29457180087922,23.208589209608427
13.099949561384479,1.6584515486631644,1.1861310087769186,10.522033915870239,55.96052153241318,43.23147380963988,22.56415260822215
13.119930251813937,1.3054586978327705,0.9328286802440261,10.369780783897895,30.832970481181242,34.607995371700646,15.330480143631528
13.140070993921295,0.7718151677577839,0.5506761890155885,10.140260962886694,29.9394322611543,19.950641057635696,12.603997956647547
13.160247807718576,0.2067992223022006,0.15280733834988813,9.90287291157454,3.6540855866351105,5.5240952020280005,3.6181116487645117
13.18057361973199,-0.548318259913532,-0.3953680248162814,9.571913022638688,-12.933432368075877,-7.739674325984261,-8.160006698861036
13.200501635846006,-1.2585421284726745,-0.9137099719431165,9.25833204479285,-26.87545477852722,-25.281219878168425,-13.376171740396979
13.220479469471252,-1.6792965631050483,-1.2135596321355018,9.078583067071257,-46.44378592453449,-32.74491183579583,-27.220644765956926
13.24027626825443,-1.7409793062338996,-1.2443988742583398,9.063164155823701,-45.140281652766824,-41.60772845516772,-26.851321992673036
13.260028848877013,-1.8668797583482237,-1.3474593215064568,8.998263858469324,-62.21921433428001,-38.176320171725195,-24.850685087319857
13.28007789718326,-1.651025228364398,-1.197634054671983,9.087142492500748,-44.66199033928824,-32.62970139822857,-24.047868827298128
13.299926056772353,-0.9366486267259432,-0.6662979560921678,9.410859807710851,-32.29396246623425,-23.931763170255014,-19.08296332702063
13.320175866501337,-0.44039838553255883,-0.3211268323997926,9.6157940372556,-16.664822070610306,-7.1142364933213065,-6.122333899491089
13.339886723243945,0.7430913961026138,0.5694536740654218,10.160696162370751,7.26504008182831,4.634956450664413,6.2519673972937575
13.35998732777409,0.11139219599211414,0.011398059207118338,9.800933016673913,27.833982369766122,21.940097998403104,16.79894143870836
13.37978951381531,1.7215419273367032,1.257740124289937,10.571193115685498,43.34443918563837,21.761751328387557,18.273705946954802
13.399628758010937,2.05946187687309,1.5030863884307177,10.719328344213416,49.365421475253505,35.554004296402105,26.280166357490515
13.41973991431297,1.118345088530745,0.7455021715457514,10.244860961533002,46.39616576848056,37.9512330205987,26.77194266070115
13.43960807211473,1.4477724972167505,1.0253112455927558,10.423130621791172,46.147332916007414,31.67354184597678,25.80694988644428
13.459508249190208,1.0315172045300494,0.727246666681572,10.24411935481297,33.27712745507673,23.629810736570704,15.277276399349235
13.479349151406478,0.1524899033935726,0.07272820170266503,9.845191850853293,21.101521177077768,4.389700199398978,2.8151186831448216
13.499709491253782,-0.3075552452803858,-0.2396833185954695,9.661523108717175,1.764390971711205,0.19216611613767687,-0.8495887142049552
13.519589327880547,-1.0459106021205202,-0.7756366661123499,9.337954545259796,-20.211556458418897,-12.03492398318118,-13.223350486920191
13.539602972213014,-0.7254494329182026,-0.47311978353925166,9.536641752536992,-40.23285262924313,-24.342254227808798,-20.043809126404447
13.55956592338194,-1.3330443041478643,-0.9281142014246828,9.258745549504075,-49.371831410363335,-29.386675176191286,-23.957197747761015
13.579613540683267,-1.3681777936504937,-0.9445727215933601,9.250885697613949,-52.7387845738685,-36.48473030284624,-26.011701781886597
13.599493927182854,-1.4232258992184799,-0.9980326463663739,9.215510444564435,-48.42568933905129,-32.74361234884782,-23.00000103404762
13.61945709762493,-1.6381555167303408,-1.1991438432101151,9.083739383446629,-35.78660458677044,-27.06468885125514,-16.453959413100748
13.63953922191571,-0.933945921133827,-0.6805918933713564,9.398497742379508,-18.612409227928136,-13.20345728596385,-12.197347339112113
13.659369954377091,0.0021783403908284815,0.014139874710738229,9.821420172193811,-4.387994264435372,-10.985448780179475,-0.8791078798552279
13.679591152537398,0.1410035544380734,0.0692906809414024,9.84424164171149,14.584678142521135,6.410135812374025,7.296475131300902
13.699831582530187,1.3024970661506583,0.9486892925977601,10.383491566139691,31.819318299255503,31.261588365857065,18.357876574763075
13.7199562149444,1.4445148978278224,1.0256165596386642,10.42392798339425,40.75225964220296,20.196660545417465,21.10011755061338
13.7399735241101,1.619107358568379,1.1468670067832811,10.495871279224671,44.8459987355926,36.40383036872881,24.499699984580023
13.759378737709442,1.9165109962063576,1.387218253615488,10.646596711978514,39.88632496331245,42.359010635439844,23.20855588093628
13.779466929824954,1.568879984237997,1.1320524738939246,10.491897064205272,37.54142437510664,30.29657504640943,20.021839962870015
13.799391997632888,0.8579968061283446,0.6035728743991842,10.169977927644597,29.973917434169465,18.681087268619414,11.453630698877644
13.819346076639587,0.7090144614165526,0.5362502388126182,10.138706122107756,6.80588625001011,8.387440964232463,2.512429861673434
13.838969935062464,-0.6189229736328967,-0.46988660959035217,9.521581654280189,-9.60629162578477,-8.078543229003536,-1.8813320634793609
13.85907198664862,-0.724252904486105,-0.501485159025794,9.51280451822619,-23.64023175063511,-19.325043676987825,-16.23579914340215
13.878785604328238,-1.2178196924598446,-0.8546200336949877,9.300786587330817,-37.27512594218265,-33.32583525082264,-20.896640981241706
13.898812623126418,-1.7792369523318585,-1.2788433029622588,9.04083673958676,-53.579750561906245,-30.59319262602841,-21.045014791725038
13.91899688851178,-1.642231954705534,-1.1646365470748699,9.113174869888532,-44.73104211425092,-30.17092956706104,-25.916271833270386
13.938906356764498,-1.9246363379583444,-1.406911733363011,8.958346278523882,-38.629028554444105,-33.86628586147426,-19.64666813955404
13.959152900998525,-0.8636579758032115,-0.5931378593655452,9.459661446495915,-38.24542304510085,-31.37957742271226,-18.07122404168455
13.979006836811864,-0.6276164989314789,-0.45305212560244756,9.537059311819874,-20.466208862450976,-14.879484237250882,-11.327003076173185
13.999130257316192,-0.07985988120086844,-0.07048422138539563,9.76457312904565,8.154225557297911,0.7291358056603946,-3.6850914939189856
14.018872634054881,1.0299507293035584,0.7626536153097759,10.273886224540888,19.701388438080397,17.854436417783717,14.156000229996433
14.039082194030799,1.041748244906595,0.7259941943193254,10.24137045444834,24.70257746472425,21.811034285634243,14.490120056088507
14.059260725996298,1.1922710347793863,0.815404591507356,10.290791987126232,39.13900458172098,30.757247485827556,25.310265823067486
14.079357731469871,1.282708839249112,0.8761929921444653,10.326376020245535,48.74451162574568,40.0469005030001,21.995838795423897
14.099282408531531,1.820567956594143,1.315988796316133,10.603229337497755,41.00664306830417,39.810936399993174,27.363079913683055
14.119005342295827,0.9134680474145935,0.6195518505176625,10.174048534195622,35.00707695148861,24.69767662764969,25.157446076180708
14.138930548121765,1.300563326407234,0.974097083541908,10.404987015217051,22.279840263044314,9.922309126214834,5.999339418242199
14.159155943445896,-0.48268491747096437,-0.39831026868198455,9.558522262343507,11.365384588577996,19.461174682742683,-1.227213518274266
14.17918526970919,-0.0013354944144364778,0.04266923917428922,9.845780281714315,-16.031481149751745,-7.017887491016031,-4.970210192896725
14.19887799621227,-1.0274436207267466,-0.7284621370767517,9.374188822557166,-25.801544170351406,-24.70820868499656,-14.042997814010155
14.218656384573366,-1.5469963440404013,-1.1074842971912398,9.144929143014034,-36.227125203509964,-28.18303813261617,-19.354697442566334
14.238910348742518,-1.8954253286792146,-1.3678874398602405,8.985998021563002,-42.31272601428333,-37.73548891935489,-26.463403831734983
14.259011265181925,-1.5828486462422613,-1.1203426758039907,9.140189211203719,-47.22164076301166,-32.14827585195369,-18.36010438189965
14.27876779904676,-1.445317355366817,-1.0333372890386512,9.18977181836226,-50.78864415746237,-29.932182824819517,-20.131950809064428
14.298417966636505,-0.6330026670984737,-0.4237741423899136,9.562355325858151,-25.238539435935827,-20.2006383313785,-17.422219612008135
14.31829629209857,-0.3242566343490299,-0.2286745992837118,9.673480606321746,-5.001569959436349,-8.250586390031984,-5.881230199380862
14.337929354245952,0.34240425246828615,0.248439368486367,9.959965431660592,8.089342302243569,-0.8658982952499583,0.6366382260238295
14.357901521236933,0.8022981272667149,0.5637200625907258,10.146050364281152,34.762399091258295,29.220084302627235,17.792563946103343
14.37839518020028,1.3803231358016173,0.9844807809626135,10.400346794835244,44.22507703356408,25.236762318331373,17.981960824713045
14.398079122874123,1.779446090274023,1.2789478242529553,10.579215505165125,51.04438287451836,29.35214411001286,25.57895844861109
14.418045251630462,1.2267267518203115,0.8322576354890523,10.299093570937492,55.13982554509489,36.216642078017436,23.441941559586308
14.43831097083451,1.1435663039890538,0.7821654491380343,10.271210156950188,45.89604727404061,28.364539445749635,20.268437079580572
14.458464122295151,1.3617591110964051,0.9917975846294451,10.409538135341803,20.07251558558297,24.143862109118448,10.537521497436718
14.478437708041172,0.6208065234429335,0.4478269137253854,10.079721340864,13.777073585635346,15.643395500049223,9.930907980465289
14.49841177219612,-0.13489862186522303,-0.10108715855279964,9.748243804850205,3.708593823113002,3.2685797678014152,2.7589206013244185
14.518183924128616,-0.712226129312912,-0.5082589340875413,9.505155243145868,-24.54527982142091,-11.30683873258866,-13.00156430456017
14.538133726863597,-1.1506945337745547,-0.8129868517010962,9.324293379211513,-36.97362096570059,-28.420354103565316,-22.56381656475396
14.558185748895427,-1.777794943667454,-1.2837330658275652,9.036521602421605,-51.391811271648095,-34.37776313829163,-20.673866722852882
14.578410105493065,-1.9832379594402174,-1.436612092539072,8.943362916124142,-41.07314536169183,-35.45517349878806,-29.935103216169093
14.598289404257343,-1.5790448025823456,-1.1228531238563064,9.137463197216803,-38.38677711609993,-43.884616672102865,-19.738520893750227
14.61825477112071,-1.5892623514875694,-1.160345551058365,9.107922432699292,-41.44078785293393,-24.913159032323417,-21.223907057479003
14.638068262313542,-0.6491825649461227,-0.453203904100287,9.540527174074116,-21.31089261692499,-23.822033402071963,-14.333569537909083
14.65811666123843,-0.6499285128562973,-0.5080153732920425,9.494975274399348,-7.378282569818673,7.2198737462836196,-1.2425189021053424
14.678276751017474,0.8216483444286866,0.6133556766945785,10.184188339840702,17.72905614461385,8.968174288884242,4.212748619694166
14.69840601450914,1.2346767371883005,0.8940644618251214,10.349274261989551,33.77405802805129,22.494856095406778,13.491488077040195
14.718175310983034,1.596157477257965,1.146696105495189,10.499553841702998,47.46848662846068,28.708933581606487,22.766925183210198
14.738208017513907,2.0271486247851525,1.4732325001479936,10.69983564599247,51.155058798582246,33.97174976075365,17.460396268521464
14.758075888897238,2.2015940863182553,1.6153936902277914,10.789229060803452,63.304223974213265,47.840862552419395,29.240854208920428
14.778281432789353,1.736760378493269,1.266626929167087,10.576062377890361,35.78750571745574,35.39719184999856,20.59448266865193
14.798252504133778,0.4094351587827145,0.24511691889626808,9.946024905949772,18.924052604451944,12.861789806736697,9.859636651106674
14.817951935355111,-0.02803963745220267,-0.05293172018191994,9.770563506090435,8.20121906987863,15.1460670584656,2.031598928832444
14.83791130870297,-0.48746831217849773,-0.3642584149825301,9.587696039544308,-16.412019581224023,-0.46284731435985904,-1.3110999919289377
14.858006337105792,-0.9059004307353475,-0.6464008235198269,9.42231605218937,-33.56881837284704,-20.98594257855425,-11.25009470618623
14.878058472207403,-1.243762420732732,-0.8750904971398882,9.288051655838881,-44.97971975308894,-28.446375151425144,-15.826231269193922
14.897959446893653,-1.9055570784679885,-1.3797741826725096,8.977781027517574,-52.834771227785254,-36.24259042257571,-26.16014188472626
14.91784572610466,-1.6834483543545726,-1.19766053630957,9.092524278801122,-54.47247290111305,-27.411637271287404,-23.959939684228967
14.937651559113998,-1.7733526550410224,-1.2861046004326728,9.033804942146276,-41.60141311448796,-37.12583184499672,-20.816550198006478
14.957575943078913,-1.3201462143484646,-0.958686325182982,9.23111909807226,-35.00782740402326,-23.627608525068798,-14.152638548541578
14.977408141174589,-0.9889448492960735,-0.7425604634161497,9.356023755369222,-17.096044881265453,-14.289580660141311,-4.717392633155319
14.997605492260806,-0.1945199535955828,-0.1626831074682681,9.706850736042375,6.826878736438631,-5.398415875138803,-0.9739342855660635
15.017428598671643,0.3147575036449148,0.19006918417337626,9.915931402870328,16.747326956944722,26.392395960913824,9.946958987144484
15.037456389453096,0.9641216652597466,0.663564448680402,10.202283429690377,34.588231682274866,21.025387986336796,16.125031351158803
15.057470584122743,1.9330132061225398,1.4078173648574444,10.661012269694115,48.02653327732709,35.74894594758576,22.94103105336213
15.0776630515013,1.4649715069180576,1.0219951049429339,10.41750066963277,40.286194527402905,28.792022115976337,27.092315111440932
15.097884259048074,2.4265423640320023,1.8009343702615348,10.906354914545945,34.84197944326953,33.07952754480136,18.421146993229115
15.118026786925713,1.4418963553053332,1.0426112855264609,10.438526678721162,38.69918621659052,29.836293786618715,21.81241449467881
15.138100706483351,0.8246406439922483,0.5937819603180456,10.167378192932997,24.43692302808553,12.358968821426462,7.570879439834269
15.157894311143114,-0.12109471924038803,-0.10856828523350837,9.739708882178808,14.218603954661369,5.857136713977761,1.026640681107963
15.177683871014548,-0.30543667178207223,-0.20016108294524895,9.694105209509305,-13.938943780802223,-12.392269079542618,-3.632883305169763
15.197518066739576,-1.2677347743975773,-0.920326954387241,9.254350000410229,-27.188256457316534,-17.66480372071219,-14.659448367853289
15.217671784828482,-1.4841080089632683,-1.0569397540257397,9.176568206472428,-44.42624759955493,-25.777858719517678,-20.70585234602155
15.237689784703115,-0.9647034192806584,-0.6232431256449871,9.45141463184262,-48.020400485254484,-40.063626248534995,-28.295146432475292
15.257866850040244,-1.7301277945315583,-1.238275679229747,9.066458233063805,-40.27256792308557,-36.07297480191015,-27.43668387338814
15.27807074447609,-1.086086239845803,-0.7462231429282278,9.369161754200778,-51.50191374009978,-29.744191104742534,-17.617205634729043
15.29792888798501,-1.1703521785148476,-0.8540475212995569,9.293352428669511,-25.34332588291535,-17.46180890090682,-15.473134221840045
15.317938636739504,-0.36363764506203167,-0.2606408790856588,9.653405541605624,0.5881879957313103,-7.495399259770311,-6.529608447227307
15.337939371892748,0.8339712038774385,0.6412285905430836,10.205361958139664,10.059628615669157,7.4381479364310445,7.216582512975357
15.357877148243805,0.727981328045935,0.5038646528325539,10.108556989352806,34.42633468422896,18.41307002707294,9.936994297923778
15.377773513561882,1.944444545035339,1.4354947808023062,10.682171559829365,36.87422432767452,30.59141314135139,20.81784793631964
15.398013798551546,1.9008837241231569,1.3759734241425385,10.639830566098256,48.084280914510416,42.6730897566724,24.250981171167563
15.41802752678587,1.570435171588794,1.1072759768975717,10.470990785483178,49.858343636430774,40.49845629942516,24.837302884654193
15.438033489632563,1.735172124071789,1.2556705733412772,10.5671967904391,33.06775324192423,36.62305967625541,20.52254742372653
15.45787626798657,1.4263653932933478,1.0438409667713644,10.44213990676058,26.576226815186967,27.92818858650637,14.468992432829
15.478014644361636,0.7508877377932066,0.5523377831664469,10.145133529673172,10.639760292452863,11.324057877624417,4.8269753533018
15.49781695675045,-0.556263631978086,-0.43770837278153035,9.537953628011739,1.6761527898498039,-0.2314979823369725,0.2309062779675033
15.5179112717452,-0.9409088364049044,-0.6907755533818569,9.391171844915938,-16.289739718935266,-20.913747327195377,-12.329700198227979
15.538011051506192,-1.3330507253188086,-0.9585438544276164,9.233388575530121,-34.345393062277545,-20.63014317527287,-15.07655377440335
15.55793188238531,-1.6403003325145449,-1.173557097115819,9.10541914115591,-42.10720848099378,-48.58559438567034,-23.787526607408115
15.577998746690527,-1.5636298571752703,-1.1009183297596044,9.15317303472954,-50.81593239047955,-37.932130956830136,-28.172944131698454
15.598039214491317,-1.5825427697136158,-1.1258182383428705,9.135575262999877,-40.72900079497634,-29.34951447125417,-24.08277121778229
15.618034676255338,-1.692651565855572,-1.2433742591208112,9.055963378375253,-36.871722308055126,-34.50608805905832,-19.690403858017163
15.638040598940348,-0.6526599682731649,-0.4564091754549645,9.538435681833057,-21.616946150722043,-14.430800202807616,-7.925822958743755
15.658056289193967,0.049504262238904945,0.05106096362080184,9.844300092644184,-5.147147776204686,-6.268220690314606,-3.0165928727009113
15.678085605417483,0.6860934799155932,0.5044613828865077,10.116035572419491,18.22671940350446,9.2593339355474,6.573602364060184
15.698100987712733,1.4214208754428082,1.043092129687696,10.442339962165946,29.24219613911891,28.240847469834797,19.908735227569046
15.717883548763673,1.7722462426604921,1.2873338858744663,10.587403864451973,48.36985963729951,33.60606169290763,23.268653340044633
15.737856440462455,1.8708659789281443,1.34814032984312,10.621639278381242,43.85673872955178,26.966333985427045,29.746860264576398
15.757912764071675,1.6796139835987653,1.1979200128473244,10.528331013439644,43.09581007025502,31.560665809264,28.072330684139708
15.777935555706364,0.9309953047180966,0.622286222222515,10.173405967732414,44.273807626286626,35.504184062434376,17.75684916023849
15.798129639647225,1.0859841715001577,0.7867503052778078,10.28462789248148,26.902956234524424,22.753971571544604,16.642691216920067
15.818256990854106,0.41275417777526247,0.30016495322366754,9.99134509805718,7.7433392514151915,16.25027511175705,9.582308042314192
15.838086242836077,-0.22396488913741058,-0.1529914649988408,9.719834594023867,-4.27652677465192,1.8681263922945721,0.2350316784556501
15.858056251303447,-1.30143745664315,-0.9624288609804865,9.224882191956787,-29.27667518177491,-21.391501734242325,-10.155896104942181
15.87799731786174,-1.7266733332565611,-1.2611366919366134,9.046831645595583,-41.06833116104707,-17.534304641811474,-17.131093460045083
15.897999782053395,-1.3733323287127073,-0.953870589994802,9.243996563123117,-41.26895124143216,-36.07641989458141,-25.04052862692063
15.918002519662409,-1.7507342785007498,-1.2515416171711353,9.058837698774179,-41.98622348076828,-42.07479407941128,-27.35311385795949
15.938128157885238,-1.3397078056482956,-0.939409843244915,9.250443098237287,-36.25680937322216,-36.25729964798323,-23.11605216897927
15.95816695744685,-1.1240089300767901,-0.8021353346686383,9.3288887094556,-33.7678986822675,-35.55157787464555,-21.17300190309726
15.978416400336872,-0.5528147432369497,-0.3941025158679307,9.573717027316217,-9.896245048954015,-4.0022246391608665,-3.9964938406730663
15.998467934853384,0.36942734329360244,0.28800397164909886,9.988432085825316,-2.232129810249015,9.858285691665099,0.4064382860440512
16.018305150638298,0.5704572795678259,0.39419976382285743,10.04342358992441,16.187505570190783,10.46397776378421,14.235002159095423
16.038215028403247,1.2895397542485738,0.9235715015846065,10.36471962561241,24.267821341629016,25.875654011653587,14.315551570710614
16.058339120106375,1.4803333603054054,1.045493892794303,10.434522683944351,54.62193949283317,35.17123658306828,26.376674004676893
16.078019620342456,1.6195186121088274,1.1456262485151887,10.49476877174452,45.67631447857739,32.695395032257764,23.513464887440932
16.097753778148483,1.542122720715209,1.0935660887645273,10.464284620517905,46.07803303714473,26.257511795554215,19.50223974301249
16.117759251478894,1.3568324738705266,0.974878064035243,10.396259641050948,32.31101664408466,26.59519074641,23.31267333334231
16.13795276979158,0.6206223613326062,0.43099100782337213,10.065722112964043,25.311453322554968,14.771323163381965,14.239748548474456
16.15821751076695,0.5076568156194791,0.39490288295723275,10.05447626652778,1.8626882091968096,0.8635861796437567,2.505805516949108
16.178177423506526,-0.789163967208121,-0.5866927357771594,9.452616714720389,-21.403563781943884,-10.04602918432953,-7.337926009484679
16.198392923132907,-1.1553886741734285,-0.8300828952594553,9.31082903297936,-29.201035205498865,-16.409412727191913,-14.386143956757229
16.21841071060384,-1.6553437999093674,-1.1936957985765986,9.091144134504395,-50.69506390768301,-34.16027393618253,-21.1793211580637
16.238107761496373,-1.2993974865445503,-0.8909330590770115,9.284122031859916,-53.71533867945375,-36.294017546050405,-27.14098288895256
16.25810948007806,-1.6410469388873974,-1.1671221192378436,9.110906057116363,-59.10625619715526,-32.79450534929396,-25.522062121367192
16.277989032342116,-1.1181420421827082,-0.7721397419727412,9.352907222053167,-47.911087818796574,-27.822758310792665,-14.51349513278816
16.298176012407197,-1.4004639101214398,-1.0385314882505505,9.177967744811447,-26.387234100264703,-23.532027583889526,-5.623469746549503
16.318174211244106,-0.26763870059534745,-0.1843034935886101,9.701020205442049,-19.758502486403913,-6.969981106346788,-0.27990563225259546
16.337921962511775,0.575034552201853,0.43361518631735485,10.075506896564155,1.3984231916006191,9.340812961877166,5.836747727842469
16.357625353438575,0.9454372523464503,0.6774281971145468,10.216950622204381,26.29535700687376,14.088644503099461,12.140353695663094
16.377624491336075,1.7236434158229326,1.2585719352323468,10.5715360433898,37.39623132820124,36.40339441048242,17.662575222642353
16.39714378173076,1.5348075213928203,1.0829893837065765,10.456689899523344,58.24572764902317,43.37210287799053,21.945925003322706
16.41704348256178,2.1613602004723056,1.580069077370705,10.766497531063537,58.8425103991685,33.6408694745625,23.176710858463032
16.437093022515906,2.2325318531240588,1.6537801325531083,10.816061468273581,39.74217100162377,34.02968757827549,28.494383781967073
16.45688495310408,1.0215554640208722,0.7203523398893176,10.240034372570953,35.08303186781084,27.434399115200232,21.567518777044512
16.47708708442444,0.42548627811948736,0.292462990963614,9.982804779449765,19.721756628389222,9.253437101350213,10.226507091802166
16.497328619623374,0.3453273732055415,0.284035153129842,9.989141398740612,-5.578479145258266,0.46475558708828446,-4.177381956806603
16.517128613321802,-0.25390027855936265,-0.14073977236646934,9.735033569454503,-28.27119117616463,-14.778834488794383,-7.717573966703696
16.537072338375946,-1.4194668041275056,-1.0273498322178738,9.190452940506356,-36.13602927458386,-34.39549365922669,-18.753119599553603
16.557274610895195,-1.7461136390852643,-1.2580288317862252,9.05266158002569,-47.15158820139933,-32.41971329060379,-29.60270822959675
16.577277683277323,-1.834434537831095,-1.3175562741071951,9.01777552788252,-52.175941204080026,-42.998551120775375,-24.137257447409688
16.597002121450686,-2.037226763593341,-1.4897335585646965,8.908093161794977,-44.471033095836376,-30.315948819183866,-25.867047840831567
16.616976791125953,-1.5639288259808708,-1.1407144971816443,9.120059390012107,-40.56316923604546,-30.963196276432544,-20.828920887778846
16.636809539350477,-1.0630149157818005,-0.7851171309891966,9.33290487680597,-27.524921616643724,-17.130127577366732,-11.633690920078028
16.65703451281874,-0.3585274409155485,-0.27583439518521224,9.639892577498248,-3.1171043306596977,4.114505180426232,-3.326228510031667
16.67715903312659,0.5130004559265506,0.3655369999861618,10.029114090667376,16.884305381203948,13.697749421413903,7.374457001867762
16.697099615626517,1.1717294104495555,0.8429722434434787,10.317188634461306,25.587203585888286,18.205451631168685,15.488222502642664
16.717131379118005,1.9899257562509427,1.4612455528516068,10.696050334667849,48.20547043800455,27.599180183291434,16.155081412981673
16.73687308869159,1.434359257677633,0.9988703658650261,10.403332095274584,40.68660773681305,34.15774612615145,29.33034067949522
16.756725667088862,1.99465557017577,1.4500651260863766,10.685945010042685,45.66254272450165,38.38805293034322,21.326424840193894
16.777039656815383,1.3619070461349965,0.9672881769591988,10.389088973110166,39.45577730194479,32.35086406186347,17.515714836075
16.79705369363488,0.9376514211155067,0.6684790911200138,10.210790672414095,24.032896694204258,16.194999919783584,12.621347873361062
16.81724304468482,0.5475046784018334,0.408427271514165,10.059105279861498,7.033521368011246,1.5580703737536101,4.604407325775722
16.83729278119148,-0.647667932630732,-0.49148994671926766,9.508369699839065,0.4739059497679303,-5.253182820900309,-0.06379378039080308
16.85755897144907,-0.8083660307537707,-0.5675709142079606,9.471751909952328,-30.628390576879806,-20.689777927714793,-12.378714709677952
16.87716253783153,-1.3557031076248511,-0.9640791629494153,9.23255121547963,-27.954999104462374,-19.334751350377775,-18.38115740608237
16.89712822820371,-1.5429703776482058,-1.0894586658170804,9.159279508093801,-46.120244868506184,-36.046390792555684,-23.329330820830876
16.917460518421933,-1.6514893201728866,-1.1721994635658608,9.108415333723931,-49.20372183758953,-28.176734004610747,-24.13761401457843
16.937655086998028,-0.804972967114282,-0.5118444014839213,9.517625159949114,-41.66345563556311,-38.88541104239778,-21.093140191989697
16.957923495338765,-1.3196288265680898,-0.9589910471436693,9.230778931808292,-19.58769929067438,-32.04406822550914,-21.916871446173886
16.977925476309018,-0.7158301904191553,-0.5249614862851577,9.491837126498895,-20.8688537030461,-17.526092175169317,-8.700199796213017
16.997821388914918,-0.09350864340682738,-0.08281550168437064,9.75657185583083,-2.9325606083790356,7.947795646994516,4.821547824864927
17.01761928991196,0.5636282144725611,0.38830788441627995,10.039651867934808,17.090564737730038,24.4291797389099,22.259440892714878
17.03740323818261,1.0732948162043934,0.750249199729542,10.256325197073886,36.28960014614705,23.185766038730016,14.451515408043594
17.057567984184033,1.9778002016644693,1.4432891405602437,10.683107583522792,37.68815129971439,32.434925044035154,24.427743342861685
17.0776739602831,2.176077785262515,1.5908685272786782,10.773044141855147,50.10959650703756,31.653520681770893,23.285810421599237
17.097663979482213,1.4616809418762313,1.0293814823580358,10.424204411652326,55.12215938138477,25.93261855014537,29.470167568848755
17.117768951502164,1.0367642898653928,0.7191424923097434,10.236491361947222,37.51335014731422,31.159293384525895,14.316808314720722
17.137800775742956,0.9007212103716786,0.6554944074297065,10.206125137796143,20.230759661002402,17.385741731719904,12.721911948887032
17.157996553172218,-0.0402208648602205,-0.042929210324525346,9.7809291355396,0.4933705686981771,2.740569522456613,-2.429546892454413
17.17819042441218,-0.33614923053347767,-0.22383120363877093,9.679498868723272,-10.536835073245921,-18.272327882819706,-8.47039680218437
17.197980583481066,-1.0427231755353492,-0.739584247703359,9.367466989503093,-35.66059477449707,-15.448789772086824,-15.868655446402844
17.21803864656754,-1.98084620539879,-1.4538664239562076,8.928585680936292,-34.37153385127864,-35.21941878095352,-18.592681681918613
17.237708207106483,-1.2699842479817798,-0.8673386148099269,9.298881862322023,-39.88279578659389,-34.49406376979188,-28.00629774105842
17.257738145143083,-1.159936833099012,-0.7823465977625524,9.351367307381043,-47.250535578910174,-43.673524205387956,-22.2769956395674
17.277862339888003,-1.6083450819850436,-1.164575339173201,9.107578064353174,-40.75781757866116,-31.477807551808638,-20.293787898975125
17.297602929908027,-1.066493386833478,-0.7717504592794098,9.344623515072739,-21.994784354583146,-18.90419026565029,-12.755661539037531
17.317522971249918,-0.2566034122480202,-0.1759373272728026,9.70615279598067,-4.307808330734568,-5.700974541136857,-2.0159022768801735
17.337528210414344,0.4138936085550665,0.30423860928185675,9.994549906309038,4.928800532101751,7.492312106732246,0.6317095146835507
17.357578327286596,1.122986857066259,0.8190674649160576,10.305391744585672,23.807897913299623,22.303117644481212,15.652121708937344
17.377525940434936,2.0103361290738433,1.4876453517638801,10.714648438290928,33.596113324981765,24.50328559363388,18.397210689930848
17.397294816693435,1.6383291159908377,1.1656850112864658,10.508349323406915,50.371418527071796,37.231433403749435,27.45066728263123
17.417287349142033,1.4984303945480932,1.0497797812462206,10.435078085280502,52.987984214702436,37.80992201546487,25.83109530232263
17.436960234317624,1.1264640288108336,0.7691489547159364,10.263213457461475,37.257794588270556,34.163930504157996,21.375126244237293
17.456917039919272,0.906924833536816,0.6290081086420763,10.183019284945596,29.901258205044684,24.494665633440018,14.318548457290275
17.476832099085517,0.5439857077923672,0.3877093834063647,10.042426868206576,9.090124687936292,5.503731837315291,10.383082120987511
17.496808579839808,0.44218853055879964,0.36199472403245714,10.03796418160058,-7.241965579691665,-8.649973656899224,2.408871792206545
17.516700049333295,-0.8880523654007907,-0.6476331229757807,9.418314458420314,-18.181171147152483,-26.77353326563574,-12.066682846722545
17.536401847054645,-1.1992736062240772,-0.8508694571179121,9.300821053439087,-39.8505529538413,-23.049684416110942,-21.490591007569144
17.556331912279507,-1.6270557583047711,-1.1626049875452789,9.112338470096397,-47.850669479674224,-30.621617225958556,-21.09063672092069
17.576521410193497,-1.3934315653144207,-0.9647495767644927,9.238280613581994,-58.13511713541789,-33.28116741565039,-29.344872073941758
17.596777036243278,-0.8738342915832763,-0.5591890887513042,9.48964814130446,-45.69116378981562,-33.43563631652195,-27.229594731968383
17.617268236988,-1.4438661381363174,-1.0449838671153207,9.179824467093285,-36.92438106380099,-38.19285693702386,-21.53960805887257
17.63760990095866,-0.9036503597972729,-0.6580501283770921,9.412233286318635,-25.268182737074564,-21.351092324107896,-12.058044692570626
17.65737384726231,0.19054464728564563,0.16295317061438017,9.914036867631044,-4.450889083700255,-1.7772861085003537,-5.761904465290277
17.67729549363104,0.7332177781092499,0.5412613369541408,10.138848151110242,16.005769580270268,12.00581139727376,1.7357478607317898
17.69729427039305,1.6597446466823302,1.2330186502920197,10.560891434129628,27.518014940068145,22.580525697701045,12.389845259296063
17.717280492315187,1.7026450221781728,1.2311903120356484,10.552217756333345,36.26058918228779,34.57601244126375,23.748374290866195
17.737297732870147,1.626814239145032,1.1527712313404985,10.499506986259577,58.587925488609784,37.22829853230801,20.965394446207554
17.757782585043437,1.875233675859071,1.3546408926885674,10.626328464597295,45.348985809345166,36.990364327429205,23.236865632585754
17.777569508623262,1.7555208084466758,1.282452955248329,10.586123994632494,40.1707633204028,27.295596213092857,26.16737730526531
17.797430136284998,1.1940176127898776,0.8739678366521305,10.339303595078464,32.136283201692095,25.221618325550846,13.393519873213991
17.81776223536,0.49184859248282853,0.3643646125733509,10.031662411730654,27.350029742156398,5.1247073098260625,5.8799698713407675
17.837642372980362,0.003741363848642376,0.03010118048132282,9.83446075642633,-15.258462050247292,-13.430267765705356,-7.356134955156141
17.85772442299941,-0.576967234634217,-0.38205185241298056,9.587784662094887,-24.258175696165132,-23.735478887691905,-6.763231321298416
17.877934688362366,-0.9942595940194701,-0.6746441931015137,9.413506438085319,-43.79225546449134,-31.933201485325508,-21.75113048642569
17.898035322054696,-1.4975036705649685,-1.0529643675798153,9.182113638777649,-51.04014114693673,-31.289628276195653,-24.857408865381142
17.918077009070295,-1.7877303569955836,-1.281247577062136,9.040248745280817,-53.24662961647759,-37.4455171257567,-20.871608721819726
17.938268065113217,-1.4949386777077236,-1.06404070356866,9.172455859977404,-49.598354371509224,-33.90830074420796,-22.530242500814005
17.958092785290898,-0.7621453900710484,-0.5133650480548196,9.509220024966158,-32.323544809596314,-30.331133124317894,-15.914877652310858
